;Title, http://www.gcdataconcepts.com, LSM6DSM, BMP384, GPS
;Version, 2585, Build date, Feb  9 2024,  SN:CCDC2023B942042
;Start_time, 2024-07-22, 19:28:20.131
;Uptime, 5,sec,  Vbat, 4082, mv, EOL, 3500, mv
;Deadband, 0, counts
;DeadbandTimeout, 0.000,sec
;BMP384, SI, 0.100,sec, Units, Pa, mdegC
;Alt Trigger disabled
;LSM6DSM, SR,104,Hz, Units, mG, mdps, fullscale gyro 250dps, accel 4g
;Magnetometer, SR,10,Hz, Units, nT, Temperature, 31,degC
;CAM_M8 Gps, SR,10,Hz
;Gps Sats, TOW, 156516000, ver, 1, numSat, 20
;, gnssId, svId, cno, elev, azmith, prRes, flags,inUse
;, GPS, 008, 00, 05, 326, 0, 0x00001211
;, GPS, 010, 00, 40, 271, 0, 0x00001910
;, GPS, 013, 00, 11, 038, 0, 0x00001910
;, GPS, 015, 37, 39, 052, 0, 0x00001914
;, GPS, 016, 00, 06, 271, 0, 0x00001911
;, GPS, 018, 00, 68, 095, 0, 0x00001911
;, GPS, 023, 00, 69, 318, 0, 0x00001911
;, GPS, 024, 00, 22, 112, 0, 0x00001211
;Time, Ax, Ay, Az, Gx, Gy, Gz, Mx, My, Mz, P, T, TOW, Lat,Lon, Height(m), MSL(m), hdop(m), vdop(m)
1721676500.193419,-19,11,1002,-4725,621,420,-15173,-19824,69244,84562,33229
1721676500.202669,-21,18,998,-3990,-5224,-980
1721676500.211919,-26,27,1000,-4270,-5163,-438
1721676500.221169,-30,38,1006,-4348,-4962,306
1721676500.230419,-32,45,1009,-4156,-4699,1286
1721676500.239669,-30,47,1011,-3806,-4262,2266
1721676500.248919,-24,45,1009,-3325,-3737,3001
1721676500.258169,-19,42,1005,-2843,-3352,3386
1721676500.647064,-19,43,1007,-2415,-2975,3193,-15197,-19940,69097,84552,33229
1721676500.656314,-21,38,1007,-2108,-2687,2502
1721676500.665564,-17,36,1007,-1741,-2442,1793
1721676500.674814,-17,40,1004,-1365,-2319,1190
1721676500.684064,-30,41,1004,-1207,-2162,770
1721676500.693314,-31,39,1006,-945,-2004,350
1721676500.702564,-32,42,1007,-665,-1759,367
1721676500.711814,-32,44,1012,-568,-1427,673
1721676500.721070,-32,45,1017,-428,-963,875,,,,84554,33232
1721676500.730320,-29,43,1022,-175,-674,1163
1721676500.739570,-29,43,1027,140,-412,1417
1721676500.748820,-33,45,1029,403,-237,1688
1721676500.758070,-28,40,1028,552,-35,2021
1721676500.767320,-36,50,1024,840,113,2336
1721676500.776570,-52,66,1011,1007,140,2590
1721676500.785820,-39,44,996,1304,446,2861
1721676500.795075,-11,-23,989,1943,875,3106,-15063,-20129,69152,84562,33240
1721676500.804325,8,-36,999,2135,1067,2476
1721676500.813575,8,-67,1016,1435,708,1531
1721676500.822825,1,18,1023,482,87,866
1721676500.832075,2,32,1026,-542,-700,1015
1721676500.841325,-14,41,1028,-288,-1470,3088
1721676500.850575,-23,31,1028,-35,-2249,4121
1721676500.859825,-35,17,1030,263,-2774,4051
1721676500.869080,-50,40,1028,315,-3124,3500,-14971,-20281,69036
1721676500.878330,-64,72,1030,219,-3282,2546
1721676500.887580,-72,81,1026,569,-3072,2091
1721676500.896830,-76,62,1020,1549,-2757,2126
1721676500.906080,-86,36,1015,2459,-2240,2248
1721676500.915330,-67,21,1013,2870,-1400,2380
1721676500.924580,-30,14,1012,2914,-482,2310
1721676500.933830,-11,0,1015,2835,96,2292
1721676500.943085,-10,-3,1013,2547,-9,1715,-14947,-20660,68920,84556,33232
1721676500.952335,7,-3,1009,2135,-578,1076
1721676500.961585,26,12,1006,1768,-1269,700
1721676500.970835,-52,11,1026,1523,-2214,647
1721676500.980085,-101,17,1044,1462,-3273,621
1721676500.989335,-33,12,1025,1418,-2932,1365
1721676500.998585,-23,17,1022,1663,-1864,3403
1721676501.007835,-51,31,1034,1497,-1523,3298
1721676501.017090,-54,18,1035,1453,-1427,2056,-14916,-20629,68713,84550,33232, 156522.000, 40.0102958,-105.2441569, 1591.519,1612.847, 3892.439,2752.370
1721676501.026340,-12,-14,1028,1742,-1050,2082
1721676501.035590,4,-20,1026,1829,-779,2170
1721676501.044840,-7,-14,1029,1243,-1085,1058
1721676501.054090,-39,0,1037,543,-1505,-9
1721676501.063340,-62,-3,1043,114,-1943,70
1721676501.072590,-30,-18,1038,-43,-1733,945
1721676501.081840,-22,0,1031,-402,-1444,1645
1721676501.091095,-33,0,1027,-1093,-1532,945,-14996,-20697,68688,84554,33234, 156522.100, 40.0102958,-105.2441569, 1591.519,1612.847, 3892.457,2752.383
1721676501.100345,-30,4,1017,-1487,-1759,-158
1721676501.109595,-35,4,1008,-1793,-1969,-1182
1721676501.118845,-47,11,1003,-2065,-2249,-1838
1721676501.128095,-48,37,992,-2222,-2424,-2048
1721676501.137345,-50,46,990,-2117,-2407,-1978
1721676501.146595,-42,41,993,-1645,-2240,-1488
1721676501.155845,-24,40,996,-1155,-2048,-797
1721676501.165100,-24,32,1000,-665,-1978,-228
1721676501.174350,-27,19,1000,-96,-2223,341
1721676501.183600,-30,12,1006,132,-2407,726
1721676501.192850,-34,1,1012,385,-2599,1146
1721676501.202100,-29,-9,1016,455,-2722,1715
1721676501.211350,-40,-8,1022,552,-2818,2082
1721676501.220600,-47,2,1023,333,-2757,2520
1721676501.229850,-45,4,1020,53,-2433,2800
1721676501.239258,-49,8,1019,123,-2083,2642,-15032,-20788,68682,84555,33227, 156522.200, 40.0102958,-105.2441569, 1591.519,1612.847, 3892.477,2752.397
1721676501.248508,-45,14,1019,167,-1707,2213
1721676501.257758,-46,12,1025,333,-1330,1758
1721676501.267008,-55,14,1032,552,-1112,1417
1721676501.276258,-47,5,1029,762,-840,1242
1721676501.285508,-31,-1,1028,893,-412,1426
1721676501.294758,-32,-5,1030,919,-184,1435
1721676501.304008,-25,-6,1026,823,-237,1242
1721676501.313263,-25,-1,1019,639,-385,1067,-14984,-21173,68536,84556,33240, 156522.300, 40.0102958,-105.2441569, 1591.519,1612.847, 3892.499,2752.412
1721676501.322513,-37,13,1015,377,-552,665
1721676501.331763,-38,25,1016,228,-779,621
1721676501.341013,-38,24,1014,245,-884,840
1721676501.350263,-40,25,1013,403,-910,918
1721676501.359513,-42,32,1013,639,-980,936
1721676501.368763,-36,27,1012,937,-1085,997
1721676501.378013,-7,4,1016,1287,-1147,997
1721676501.387268,-40,3,1026,1523,-1339,1181,-14996,-21337,68395
1721676501.396518,-52,1,1029,1532,-1934,945
1721676501.405768,-51,1,1025,1540,-2100,1190
1721676501.415018,-59,1,1020,1637,-2100,1312
1721676501.424268,-56,14,1015,1637,-1995,1338
1721676501.433518,-63,31,1020,1715,-1908,1793
1721676501.442768,-77,20,1018,1969,-1829,2161
1721676501.452018,-70,13,1016,2433,-1540,2388
1721676501.461273,-64,-4,1012,2713,-1112,2668,-14868,-21582,68243,84554,33234, 156522.400, 40.0102958,-105.2441569, 1591.519,1612.847, 3892.523,2752.429
1721676501.470523,-66,-20,1012,2835,-744,2283
1721676501.479773,-63,-32,1018,2669,-394,1443
1721676501.489023,-69,-76,1021,2354,43,1268
1721676501.498273,-68,-75,1024,1689,367,481
1721676501.507523,-26,-39,1022,622,778,-709
1721676501.516773,4,11,1015,-323,1190,-1234
1721676501.526023,-3,36,1010,-647,857,-1812
1721676501.535279,-16,24,1010,-43,-44,-2284,-14935,-21807,68109,84564,33229, 156522.500, 40.0102958,-105.2441569, 1591.519,1612.847, 3892.549,2752.448
1721676501.544529,-22,5,1011,805,-709,-1619
1721676501.553779,-19,-12,1015,1383,-1042,-132
1721676501.563029,-31,-13,1022,1602,-1313,691
1721676501.572279,-46,-12,1030,1505,-1435,507
1721676501.581529,-57,-22,1031,1365,-1322,367
1721676501.590779,-68,-25,1028,1217,-989,140
1721676501.600029,-78,-23,1028,1042,-517,122
1721676501.609314,-72,-18,1026,735,262,708,,,,84566,33238
1721676501.618564,-64,-11,1027,289,1303,1181
1721676501.627814,-56,-8,1030,-35,2257,1540
1721676501.637064,-45,-7,1033,-288,2835,1828
1721676501.646314,-36,-28,1036,-647,3290,2178
1721676501.655564,-38,-48,1032,-1076,3578,2415
1721676501.664814,-31,-56,1031,-1732,3736,2301
1721676501.674064,-25,-60,1028,-2765,3815,2240
1721676501.683319,-24,-45,1026,-3885,3745,1951,-14654,-21697,68249,,, 156522.600, 40.0101371,-105.2441994, 1591.519,1612.847, 300.936,707.107
1721676501.692569,-19,-33,1025,-5066,3578,1697
1721676501.701819,-16,-14,1026,-5915,3272,1645
1721676501.711069,-18,10,1026,-6658,2861,2231
1721676501.720319,-5,21,1022,-7000,2493,2948
1721676501.729569,-8,24,1022,-6798,2021,3683
1721676501.738819,5,19,1021,-6343,1391,4322
1721676501.748069,4,18,1019,-6002,717,4453
1721676501.757325,-8,24,1020,-5608,-263,4208,-14349,-21466,68432,84555,33227, 156522.700, 40.0101127,-105.2441922, 1614.549,1635.877, 541.055,381.121
1721676501.766575,-8,32,1021,-5188,-1278,3981
1721676501.775825,-16,38,1019,-4628,-2030,3998
1721676501.785075,-16,26,1015,-3946,-2590,4252
1721676501.794325,-38,30,1013,-3001,-3089,4068
1721676501.803575,-48,31,1015,-2135,-3474,3552
1721676501.812825,-39,11,1015,-1225,-3465,3675
1721676501.822075,-32,-4,1011,-542,-3282,3963
1721676501.831330,-40,4,1011,-70,-3220,3780,-14349,-21807,68389,84550,33229, 156522.800, 40.0101480,-105.2442094, 1623.162,1644.490, 498.579,308.415
1721676501.840580,-37,0,1013,202,-3220,3648
1721676501.849830,-31,-11,1011,534,-3159,3710
1721676501.859080,-33,-26,1009,744,-3159,3552
1721676501.868330,-42,-31,1010,1015,-3483,3167
1721676501.877580,-46,-32,1010,744,-3387,2738
1721676501.886830,-42,-22,1009,272,-3072,2467
1721676501.896080,-45,-6,1011,-113,-2853,2572
1721676501.905426,-45,0,1011,-393,-2687,2695,-14263,-21899,68194,84554,33229
1721676501.914676,-50,-5,1013,-437,-2415,2817
1721676501.923926,-46,-12,1015,-393,-2092,3097
1721676501.933176,-44,-20,1017,-481,-1724,3342
1721676501.942426,-44,-15,1018,-665,-1322,3132
1721676501.951676,-39,-2,1020,-1015,-893,2668
1721676501.960926,-37,5,1023,-1111,-674,2493
1721676501.970176,-28,2,1021,-1015,-770,2528
1721676501.979431,-41,-2,1020,-787,-840,2432,,,,,, 156522.900, 40.0101832,-105.2442392, 1633.184,1654.512, 449.686,258.278
1721676501.988681,-54,0,1022,-560,-989,2222
1721676501.997931,-56,2,1021,-428,-972,2301
1721676502.007181,-45,4,1020,-341,-840,2511
1721676502.016431,-45,9,1019,-192,-648,2511
1721676502.025681,-46,3,1021,-70,-604,2362
1721676502.034931,-38,1,1022,254,-665,2126
1721676502.044181,-33,0,1024,490,-587,1645
1721676502.053437,-32,-16,1021,622,-552,1216,-14208,-22100,68127,84552,33229, 156523.000, 40.0101840,-105.2442554, 1640.200,1661.528, 425.970,233.071
1721676502.062687,-37,-23,1022,797,-727,586
1721676502.071937,-38,-8,1024,665,-937,297
1721676502.081187,-31,2,1026,534,-1077,560
1721676502.090437,-32,-1,1020,630,-1252,866
1721676502.099687,-31,-8,1015,989,-1567,945
1721676502.108937,-50,-9,1017,1217,-1864,936
1721676502.118187,-56,-9,1018,1190,-2048,778
1721676502.127442,-50,-10,1015,1173,-2013,805,-14196,-22235,68035,84566,33229
1721676502.136692,-49,-6,1015,1138,-1847,1146
1721676502.145942,-55,-5,1018,1103,-1602,1583
1721676502.155192,-54,-13,1020,1077,-1357,1968
1721676502.164442,-44,-18,1020,1094,-1085,2283
1721676502.173692,-34,-24,1026,1050,-814,2406
1721676502.182942,-27,-37,1028,770,-587,2030
1721676502.192192,-32,-57,1026,482,-517,1312
1721676502.201447,-37,-64,1023,-61,-683,148,-14147,-22412,67987,84558,33232
1721676502.210697,-50,-49,1023,-883,-718,-744
1721676502.219947,-52,-32,1020,-1610,-735,-945
1721676502.229197,-50,-15,1019,-2012,-595,-665
1721676502.238447,-50,-12,1017,-2213,-438,-263
1721676502.247697,-56,-8,1015,-2117,-263,-333
1721676502.256947,-55,-4,1010,-1916,-105,-263
1721676502.266197,-50,-1,1008,-1522,35,-105
1721676502.275452,-39,3,1006,-1207,332,-62,-14105,-22534,67938
1721676502.284702,-52,6,1008,-848,577,96
1721676502.293952,-49,6,1008,-402,516,297
1721676502.303202,-34,4,1010,149,726,831
1721676502.312452,-27,1,1013,543,901,1268
1721676502.321702,-26,0,1015,954,857,1557
1721676502.330952,-31,-6,1016,1252,682,1688
1721676502.340202,-27,-16,1013,1523,472,1627
1721676502.349457,-24,-22,1012,1619,350,1776,-13885,-22900,67864,84555,33227, 156523.099, 39.7012813,-99.1942642, 4536.487,4562.063, 29193.710,20643.070
1721676502.358707,-27,-22,1014,1567,131,1741
1721676502.367957,-30,-20,1014,1444,-105,1583
1721676502.377207,-38,-23,1016,1225,-333,1373
1721676502.386457,-48,-27,1020,1068,-438,1198
1721676502.395707,-49,-31,1020,832,-473,1365
1721676502.404957,-46,-40,1021,604,-307,1636
1721676502.414207,-46,-39,1024,202,17,1863
1721676502.423462,-44,-37,1028,-402,280,1828,,,,84563,33238
1721676502.432712,-50,-42,1029,-883,551,1601
1721676502.441962,-52,-37,1031,-1408,778,1207
1721676502.451212,-47,-29,1028,-2108,1155,883
1721676502.460462,-40,-17,1025,-2625,1470,665
1721676502.469712,-32,-11,1023,-2905,1723,376
1721676502.478962,-33,-5,1022,-3150,1898,-53
1721676502.488212,-36,-7,1022,-3211,1811,-482
1721676502.497467,-39,-12,1019,-3106,1671,-744,-13800,-22631,67999,84562,33232, 156523.400, 40.0101694,-105.2442898, 1556.859,1578.187, 132.800,169.825
1721676502.506717,-41,-16,1016,-3123,1723,-858
1721676502.515967,-40,-20,1019,-3193,1890,-788
1721676502.525217,-42,-19,1017,-3281,1846,-779
1721676502.534467,-44,-16,1018,-3430,1837,-639
1721676502.543717,-42,-7,1017,-3640,2021,-368
1721676502.552967,-46,-3,1018,-3788,2170,-97
1721676502.562217,-39,-5,1019,-3666,2310,245
1721676502.571472,-25,-2,1021,-3508,2388,735,-13562,-22814,68090
1721676502.580722,-25,-1,1024,-3403,2292,910
1721676502.589972,-25,-12,1025,-3080,1907,831
1721676502.599222,-26,-23,1023,-2843,1636,621
1721676502.608472,-34,-28,1025,-2756,1373,262
1721676502.617722,-35,-36,1027,-2800,1093,17
1721676502.626972,-31,-39,1030,-2800,866,-149
1721676502.636222,-30,-39,1030,-2983,682,-307
1721676502.645600,-35,-37,1028,-3342,472,-622,-13531,-22595,68243,84554,33234, 156523.600, 40.0101063,-105.2441481, 1605.722,1627.050, 67.325,59.523
1721676502.654850,-34,-42,1027,-3745,271,-998
1721676502.664100,-39,-43,1027,-4077,70,-1260
1721676502.673350,-45,-37,1029,-4462,-132,-1313
1721676502.682600,-36,-29,1022,-4961,-132,-1059
1721676502.691850,-39,-11,1019,-5232,-149,-674
1721676502.701100,-36,6,1020,-5442,-280,-359
1721676502.710350,-38,14,1016,-5425,-202,-27
1721676502.719605,-33,15,1014,-5057,-210,332,-13525,-22290,68414,84561,33234, 156523.700, 40.0101538,-105.2441456, 1611.790,1633.119, 59.363,52.872
1721676502.728855,-39,23,1013,-4637,-167,455
1721676502.738105,-33,31,1014,-4147,-202,78
1721676502.747355,-30,38,1012,-3613,-158,105
1721676502.756605,-25,44,1010,-2887,-149,96
1721676502.765855,-27,34,1011,-2100,-315,-132
1721676502.775105,-26,23,1013,-1268,-429,-245
1721676502.784355,-28,19,1015,-673,-455,-280
1721676502.793610,-37,-1,1015,-192,-455,-368,-13415,-22320,68341,84555,33238
1721676502.802860,-30,3,1016,254,-377,-447
1721676502.812110,-27,5,1018,280,-184,26
1721676502.821360,-24,5,1018,333,0,306
1721676502.830610,-27,-2,1020,517,52,332
1721676502.839860,-28,-5,1021,569,70,297
1721676502.849110,-29,-8,1019,438,175,262
1721676502.858360,-34,-8,1020,307,96,227
1721676502.867615,-41,-16,1020,97,52,323,,,,,, 156523.800, 40.0101954,-105.2441457, 1612.734,1634.062, 48.144,42.761
1721676502.876865,-45,-24,1023,-218,140,708
1721676502.886115,-42,-25,1020,-603,367,1102
1721676502.895365,-38,-19,1023,-1137,586,1356
1721676502.904615,-38,-8,1026,-1706,813,1443
1721676502.913865,-35,-7,1027,-2275,1067,1330
1721676502.923115,-40,-15,1028,-2432,1155,927
1721676502.932365,-51,-17,1027,-2546,1181,262
1721676502.941620,-56,-18,1026,-2782,1382,-385,-13287,-22399,68475,84556,33234, 156523.900, 40.0102431,-105.2441573, 1615.578,1636.907, 40.510,35.960
1721676502.950870,-42,-10,1028,-3080,1723,-779
1721676502.960120,-36,1,1031,-3246,2056,-998
1721676502.969370,-23,5,1031,-3167,2222,-1190
1721676502.978620,-18,5,1033,-3045,2275,-1138
1721676502.987870,-14,6,1033,-2835,2161,-858
1721676502.997120,-3,4,1027,-2493,1951,-359
1721676503.006370,-3,7,1021,-2327,1793,-193
1721676503.015625,-1,10,1021,-2318,1583,-193,-13183,-22290,68670,84558,33232, 156524.000, 40.0102723,-105.2441625, 1616.510,1637.838, 34.391,30.535
1721676503.024875,-7,14,1015,-2213,1198,-508
1721676503.034125,-11,19,1013,-1933,796,-805
1721676503.043375,-12,27,1011,-1627,560,-893
1721676503.052625,-12,30,1008,-1233,376,-814
1721676503.061875,-9,30,1002,-490,8,-464
1721676503.071125,-8,26,1000,202,-350,-132
1721676503.080375,-8,14,1002,910,-814,157
1721676503.089630,-12,0,1003,1628,-1418,551,-13171,-22637,68408,84555,33236
1721676503.098880,-20,-11,1006,2100,-2048,647
1721676503.108130,-29,-19,1011,2293,-2520,586
1721676503.117380,-29,-28,1018,2258,-2792,166
1721676503.126630,-38,-30,1018,2249,-2984,70
1721676503.135880,-41,-26,1022,1960,-3089,35
1721676503.145130,-42,-27,1022,1540,-3019,-167
1721676503.154380,-46,-35,1019,1278,-2897,-307
1721676503.163666,-48,-30,1020,1059,-2748,-517,-13293,-22650,68286,,, 156524.100, 40.0102938,-105.2441576, 1614.885,1636.213, 29.486,26.086
1721676503.172916,-44,-17,1021,622,-2573,-788
1721676503.182166,-38,-8,1026,254,-2205,-823
1721676503.191416,-27,-5,1027,245,-2004,-788
1721676503.200666,-35,-6,1027,377,-2022,-963
1721676503.209916,-29,-6,1025,455,-2022,-1348
1721676503.219166,-37,-2,1026,525,-1943,-1777
1721676503.228416,-38,-7,1024,657,-1969,-2293
1721676503.237641,-38,-3,1018,858,-1899,-2555,,,,84559,33236, 156524.200, 40.0103095,-105.2441512, 1612.574,1633.902, 25.824,22.694
1721676503.246891,-40,4,1016,849,-1619,-2835
1721676503.256141,-35,6,1014,998,-1400,-3098
1721676503.265391,-41,0,1016,1225,-1252,-3299
1721676503.274641,-40,-9,1019,1785,-1252,-3360
1721676503.283891,-36,-17,1020,1768,-910,-3264
1721676503.293141,-39,-21,1022,1750,-648,-3150
1721676503.302391,-35,-25,1020,1575,-385,-2975
1721676503.311676,-23,-30,1020,1313,-70,-2730,-13446,-22723,68176,84557,33225, 156524.300, 40.0103098,-105.2441443, 1610.644,1631.972, 22.924,20.231
1721676503.320926,-24,-25,1021,972,148,-2354
1721676503.330176,-31,-22,1016,630,148,-2127
1721676503.339426,-34,-23,1010,385,122,-1882
1721676503.348676,-38,-18,1012,149,218,-1645
1721676503.357926,-43,-15,1019,-52,271,-1549
1721676503.367176,-43,-15,1026,-140,350,-1462
1721676503.376426,-40,-9,1033,-253,621,-1409
1721676503.385681,-39,-4,1037,-411,883,-1453,-13415,-22686,68267
1721676503.394931,-32,0,1036,-332,1076,-1602
1721676503.404181,-27,9,1033,-96,1225,-2022
1721676503.413431,-27,12,1029,62,1321,-2433
1721676503.422681,-21,8,1026,333,1251,-2748
1721676503.431931,-17,3,1021,770,1137,-2932
1721676503.441181,-27,0,1016,945,1085,-2914
1721676503.450431,-23,-7,1006,1129,1032,-2835
1721676503.459687,-23,3,998,1304,988,-2730,-13464,-22814,68182,84557,33238, 156524.400, 40.0103129,-105.2441419, 1608.504,1629.832, 20.575,18.247
1721676503.468937,-29,17,995,1304,883,-2660
1721676503.478187,-24,17,996,1523,665,-2564
1721676503.487437,-18,7,999,2100,551,-2407
1721676503.496687,-22,5,1006,2599,385,-2363
1721676503.505937,-13,-19,1015,2993,148,-2223
1721676503.515187,15,-17,1019,3255,61,-2197
1721676503.524437,37,2,1026,3185,-333,-2564
1721676503.533692,12,15,1037,3395,-1322,-2310,-13568,-22998,67907,84550,33234, 156524.500, 40.0103218,-105.2441455, 1607.388,1628.716, 18.679,16.628
1721676503.542942,-11,9,1044,3702,-2398,-2127
1721676503.552192,-18,-4,1045,4209,-3133,-1094
1721676503.561442,-31,-25,1043,4620,-3465,385
1721676503.570692,-53,-34,1039,4612,-3483,1260
1721676503.579942,-79,-41,1033,4235,-3229,1776
1721676503.589192,-117,-22,1030,3667,-2494,1986
1721676503.598442,-85,-36,1030,3107,-1374,2406
1721676503.607697,-50,-39,1021,2722,350,3220,-13342,-23187,67858,84559,33234, 156524.600, 40.0103180,-105.2441490, 1605.473,1626.801, 17.015,15.174
1721676503.616947,-58,-36,1024,1969,1557,2152
1721676503.626197,-64,-36,1032,1287,2143,148
1721676503.635447,-74,57,1040,665,2651,-1357
1721676503.644697,-33,34,1035,604,3360,-788
1721676503.653947,-5,-7,1029,1637,3981,805
1721676503.663197,-11,-59,1026,2214,3963,910
1721676503.672447,-19,-100,1026,1934,3500,70
1721676503.681702,-10,-119,1022,972,3115,-867
1721676503.690952,-2,-117,1020,-472,2633,-1479
1721676503.700202,0,-91,1016,-2240,2003,-1960
1721676503.709452,2,-67,1013,-3806,1268,-2118
1721676503.718702,6,-38,1012,-4908,621,-1532
1721676503.727952,-6,-12,1011,-5608,-44,-727
1721676503.737202,-27,-2,1011,-5792,-657,-70
1721676503.746452,-41,-4,1011,-5600,-1068,883
1721676503.755707,-37,-12,1012,-5110,-1155,1741,-13269,-22979,68103,84555,33238, 156524.700, 40.0103179,-105.2441475, 1604.421,1625.749, 15.627,13.989
1721676503.764957,-31,-14,1014,-4742,-998,2213
1721676503.774207,-29,-10,1018,-4506,-770,2047
1721676503.783457,-27,0,1021,-4305,-683,1540
1721676503.792707,-20,1,1020,-3972,-797,1540
1721676503.801957,-1,16,1017,-3543,-902,1548
1721676503.811207,26,42,1017,-3080,-1103,1382
1721676503.820457,4,39,1024,-2423,-1654,831
1721676503.829712,-24,12,1028,-1260,-2669,376,-13293,-22943,68133,84568,33238, 156524.800, 40.0103135,-105.2441478, 1603.045,1624.373, 14.452,13.009
1721676503.838962,-18,-24,1026,-385,-3448,761
1721676503.848212,-19,-69,1025,219,-3667,1216
1721676503.857462,-38,-93,1027,184,-3947,1190
1721676503.866712,-42,-112,1025,-621,-4034,761
1721676503.875962,-52,-112,1026,-1802,-3710,568
1721676503.885212,-30,-91,1031,-3246,-3343,770
1721676503.894462,-13,-54,1033,-4480,-2923,1478
1721676503.903717,-23,-6,1033,-5460,-2765,1312,-13342,-22790,68109,84557,33236, 156524.900, 40.0103087,-105.2441485, 1601.882,1623.210, 13.478,12.213
1721676503.912967,-26,42,1031,-5906,-2914,1076
1721676503.922217,-20,82,1025,-5521,-2897,1575
1721676503.931467,-16,95,1021,-4296,-3098,2100
1721676503.940717,-8,80,1016,-2642,-3220,2423
1721676503.949967,-28,46,1014,-1128,-3422,2563
1721676503.959217,-52,-4,1016,350,-3973,2073
1721676503.968467,-52,-40,1016,1225,-4200,2073
1721676503.977783,-55,-56,1018,1085,-3912,1907,-13360,-23089,67919
1721676503.987033,-59,-46,1021,508,-3439,1408
1721676503.996283,-64,-26,1025,-332,-2870,1452
1721676504.005533,-64,-13,1025,-936,-2223,1995
1721676504.014783,-60,-8,1024,-1216,-1444,2537
1721676504.024033,-52,-4,1024,-1207,-788,2712
1721676504.033283,-56,-15,1024,-1190,-105,2493
1721676504.042533,-54,-30,1022,-1286,656,2082
1721676504.051789,-31,-52,1020,-1557,1391,2091,-12988,-23083,68127,84561,33236, 156525.000, 40.0103094,-105.2441522, 1601.237,1622.565, 12.631,11.513
1721676504.061039,-42,-44,1026,-2030,1995,2310
1721676504.070289,-17,-62,1025,-2703,2248,2791
1721676504.079539,-3,-66,1020,-3333,2555,4112
1721676504.088789,-24,-45,1016,-4156,2502,3858
1721676504.098039,-49,-7,1012,-4987,2196,3500
1721676504.107289,-33,1,1001,-5355,2240,4007
1721676504.116539,-20,1,992,-5118,2467,4996
1721676504.125794,-32,-14,992,-4707,2345,5162,,,,84553,33238, 156525.100, 40.0103063,-105.2441572, 1600.579,1621.907, 11.880,10.900
1721676504.135044,-41,-20,998,-4418,2003,4628
1721676504.144294,-34,-22,1001,-4401,1995,3911
1721676504.153544,-25,-25,1005,-4392,2100,3508
1721676504.162794,-25,-18,1009,-4532,2047,3395
1721676504.172044,-23,0,1015,-4760,1872,3062
1721676504.181294,-19,11,1019,-4786,1671,3150
1721676504.190544,-15,15,1021,-4366,1373,3438
1721676504.199799,-7,15,1023,-3675,936,3587,-12689,-22924,68463,84555,33238
1721676504.209049,0,10,1025,-3036,446,3605
1721676504.218299,-2,-6,1024,-2388,-175,3193
1721676504.227549,-11,-22,1022,-1732,-893,2406
1721676504.236799,-15,-25,1020,-1487,-1523,1828
1721676504.246049,-10,-25,1017,-1557,-2030,1557
1721676504.255299,-22,-21,1017,-1601,-2590,1076
1721676504.264549,-49,-12,1018,-1732,-3080,1120
1721676504.273804,-70,1,1014,-1828,-3264,1688,-12615,-22973,68444,,, 156525.200, 40.0103035,-105.2441597, 1599.738,1621.066, 11.229,10.362
1721676504.283054,-74,17,1011,-1811,-3028,2493
1721676504.292304,-65,26,1010,-1548,-2380,3491
1721676504.301554,-52,11,1014,-1216,-1593,4016
1721676504.310804,-31,8,1022,-796,-884,3867
1721676504.320054,-9,-7,1032,-682,-508,3062
1721676504.329304,-6,-16,1037,-516,-464,1968
1721676504.338554,-11,-29,1040,-551,-788,507
1721676504.347809,-18,-33,1039,-673,-1103,-613,-12695,-22949,68463,84561,33236, 156525.300, 40.0102972,-105.2441608, 1598.849,1620.177, 10.701,9.917
1721676504.357059,-21,-21,1033,-918,-1330,-1033
1721676504.366309,18,-9,1023,-1137,-1479,-753
1721676504.375559,-26,5,1016,-1268,-1628,-1182
1721676504.384809,-76,19,1014,-1102,-2424,-2494
1721676504.394059,-62,20,1001,-708,-2695,-1917
1721676504.403309,-39,18,996,-43,-2118,-709
1721676504.412559,-43,25,998,350,-1540,8
1721676504.421814,-39,13,1000,744,-1330,43,-12670,-22869,68450,84560,33240, 156525.400, 40.0102965,-105.2441633, 1598.625,1619.953, 10.225,9.523
1721676504.431064,-25,-8,1004,1295,-1208,35
1721676504.440314,-23,-24,1010,1532,-1112,35
1721676504.449564,-36,-19,1017,1470,-1287,-298
1721676504.458814,-67,-18,1018,1260,-1392,-455
1721676504.468064,-11,-9,1007,1094,-1059,210
1721676504.477314,1,4,1002,902,-525,1225
1721676504.486564,-35,16,1007,849,-779,437
1721676504.495819,-52,11,1009,1190,-1383,-350,,,,84554,33240
1721676504.505069,-45,5,1011,1663,-1383,-123
1721676504.514319,-31,-9,1013,2048,-1120,376
1721676504.523569,-33,-24,1017,2433,-1094,446
1721676504.532819,-36,-34,1021,2555,-1147,26
1721676504.542069,-32,-34,1026,2240,-1077,-140
1721676504.551319,-40,-15,1029,1803,-884,-184
1721676504.560569,-37,6,1026,1558,-840,253
1721676504.569825,-14,24,1022,1593,-779,1373,-12701,-23071,68200,,, 156525.500, 40.0103009,-105.2441706, 1598.790,1620.118, 9.794,9.169
1721676504.579075,-2,29,1018,2013,-1103,2450
1721676504.588325,-3,17,1016,3002,-2135,2747
1721676504.597575,38,7,1015,4428,-3850,2178
1721676504.606825,-14,-18,1022,5277,-5425,743
1721676504.616075,-64,-65,1022,5705,-7394,-1654
1721676504.625325,-61,-94,1019,5889,-8672,-2267
1721676504.634575,-61,-97,1020,4944,-8575,-2503
1721676504.643830,-71,-81,1020,3107,-7779,-3028,-13018,-23278,67926,84556,33251, 156525.600, 40.0103043,-105.2441759, 1598.813,1620.141, 9.407,8.846
1721676504.653080,-88,-49,1023,998,-6677,-3430
1721676504.662330,-87,-25,1023,-822,-5233,-3080
1721676504.671580,-80,-19,1023,-2187,-3439,-2328
1721676504.680830,-73,-18,1023,-3080,-1672,-1619
1721676504.690080,-68,-13,1023,-3692,-210,-1182
1721676504.699330,-67,5,1023,-4200,988,-1252
1721676504.708580,-33,9,1021,-4418,1951,-1304
1721676504.717835,-26,10,1022,-4217,2493,-1322,-13079,-23138,68084,84555,33245, 156525.700, 40.0103077,-105.2441808, 1598.750,1620.078, 9.100,8.605
1721676504.727085,-46,12,1022,-3850,2292,-1820
1721676504.736335,-58,14,1021,-3491,1890,-2232
1721676504.745585,-57,15,1019,-3001,1732,-2118
1721676504.754835,-64,22,1017,-2161,1583,-1952
1721676504.764085,-66,29,1017,-1496,1478,-1960
1721676504.773335,-54,28,1019,-770,1557,-2083
1721676504.782585,-45,13,1023,158,1741,-2485
1721676504.791840,-40,2,1025,1094,1618,-3045,-13110,-23101,68133,84564,33249
1721676504.801090,-34,-8,1024,1680,1268,-3448
1721676504.810340,-30,-26,1016,2118,875,-3728
1721676504.819590,-24,-40,1007,2477,280,-3885
1721676504.828840,-41,-32,1003,2494,-438,-3920
1721676504.838090,-50,-25,1001,2179,-1042,-3815
1721676504.847340,-53,-31,997,2092,-1269,-3308
1721676504.856590,-56,-32,997,2074,-1243,-2748
1721676504.865845,-53,-35,996,1803,-1068,-2144,-13177,-23291,67926,,, 156525.800, 40.0103100,-105.2441828, 1598.670,1619.998, 8.816,8.375
1721676504.875095,-48,-54,998,1540,-718,-1794
1721676504.884345,-42,-59,1002,1208,-622,-1479
1721676504.893595,-29,-57,1008,499,-560,-1339
1721676504.902845,-31,-43,1012,-323,-473,-1575
1721676504.912095,-47,-24,1016,-1102,-464,-2415
1721676504.921345,-50,-7,1014,-1443,-482,-3360
1721676504.930595,-62,-5,1017,-1540,-315,-3929
1721676504.939850,-67,-15,1020,-1452,-27,-4638,,,,84556,33251, 156525.900, 40.0103102,-105.2441834, 1598.630,1619.958, 8.557,8.166
1721676504.949100,-66,-21,1023,-1216,411,-5312
1721676504.958350,-63,-32,1022,-1137,1032,-5828
1721676504.967600,-61,-29,1024,-1347,1706,-6099
1721676504.976850,-57,-24,1024,-1855,2362,-6064
1721676504.986100,-45,-20,1025,-2318,2870,-5810
1721676504.995350,-45,-10,1024,-2520,3333,-5408
1721676505.004600,-52,0,1023,-2651,3648,-5075
1721676505.013855,-49,5,1022,-2537,3867,-4638,-13238,-22979,68206,84556,33251, 156526.000, 40.0103102,-105.2441844, 1598.717,1620.045, 8.322,7.976
1721676505.023105,-49,16,1020,-2161,4007,-4174
1721676505.032355,-43,33,1016,-1758,4025,-3964
1721676505.041605,-45,32,1015,-1268,4007,-3387
1721676505.050855,-45,33,1017,-428,3788,-2958
1721676505.060105,-46,27,1019,385,3447,-2940
1721676505.069355,-36,16,1023,1138,3272,-2879
1721676505.078605,-27,5,1024,1689,3185,-3098
1721676505.087860,-27,-17,1025,2092,2931,-3378,-13201,-23010,68249
1721676505.097110,-17,-30,1025,2354,2625,-3290
1721676505.106360,-23,-24,1025,2354,2283,-3290
1721676505.115610,-31,-18,1021,2127,1855,-3115
1721676505.124860,-38,-15,1018,2179,1347,-2774
1721676505.134110,-42,-23,1013,2310,1128,-2284
1721676505.143360,-37,-33,1011,2415,1076,-1812
1721676505.152610,-37,-46,1012,2415,1163,-1409
1721676505.161866,-38,-50,1014,2065,1216,-1418,-13201,-23028,68225,84555,33258, 156526.100, 40.0103104,-105.2441846, 1598.849,1620.177, 8.100,7.795
1721676505.171116,-26,-48,1016,1348,1408,-1742
1721676505.180366,-24,-45,1019,700,1671,-2162
1721676505.189616,-27,-38,1011,333,1697,-2687
1721676505.198866,-39,-8,1011,9,1443,-3448
1721676505.208116,-55,28,1017,-96,1303,-3658
1721676505.217366,-59,41,1020,333,1347,-3212
1721676505.226616,-37,39,1024,1392,1898,-2223
1721676505.235871,-27,18,1027,2538,2458,-1383,-13116,-23181,68157,84558,33254, 156526.200, 40.0103126,-105.2441849, 1599.226,1620.554, 7.916,7.652
1721676505.245121,-35,-15,1030,3483,2721,-1094
1721676505.254371,-45,-52,1028,4095,2791,-1374
1721676505.263621,-25,-66,1027,4087,2992,-1960
1721676505.272871,-25,-80,1029,3658,3272,-2275
1721676505.282121,-45,-85,1031,2940,3176,-2783
1721676505.291371,-104,-150,1027,2039,3123,-2302
1721676505.300621,37,-94,1018,683,3683,-1558
1721676505.309967,22,-77,1017,-1198,4742,-735,-13037,-22821,68347,84561,33256, 156526.300, 40.0103148,-105.2441840, 1599.676,1621.004, 7.777,7.545
1721676505.319217,-22,-50,1021,-2423,3780,-1777
1721676505.328467,-61,-73,1019,-3237,2563,-3177
1721676505.337717,-37,-63,1012,-3587,2248,-3168
1721676505.346967,-3,-45,1006,-4217,2336,-2704
1721676505.356217,-5,-15,1016,-4690,2047,-3220
1721676505.365467,-46,12,1026,-4865,1443,-4235
1721676505.374717,-47,19,1029,-4646,988,-4979
1721676505.383972,-22,20,1023,-3753,1242,-4017
1721676505.393222,-26,23,1022,-2887,1443,-2669
1721676505.402472,-41,33,1023,-2117,1321,-2083
1721676505.411722,-35,34,1024,-1365,1330,-1794
1721676505.420972,-18,30,1021,-201,1478,-1225
1721676505.430222,-68,-5,1024,998,1461,-832
1721676505.439472,-74,-44,1024,1864,1435,-989
1721676505.448722,44,-18,1016,2372,2161,-1138
1721676505.457978,26,-10,1020,2555,2458,-1584,-13098,-22711,68481,84556,33254, 156526.400, 40.0103166,-105.2441834, 1600.170,1621.498, 7.649,7.444
1721676505.467228,-29,0,1027,2582,1671,-3474
1721676505.476478,-30,-10,1021,2914,988,-4043
1721676505.485728,3,-14,1015,3649,988,-2774
1721676505.494978,-5,-12,1019,4078,866,-1698
1721676505.504228,-23,-8,1027,4262,516,-1260
1721676505.513478,-25,-15,1025,4472,350,-604
1721676505.522728,-18,-19,1022,4787,341,455
1721676505.531983,-22,-23,1021,4909,376,1347,-12963,-22894,68347,84553,33258, 156526.500, 40.0103192,-105.2441826, 1600.575,1621.903, 7.518,7.333
1721676505.541233,-29,-28,1021,4944,341,1723
1721676505.550483,-24,-26,1020,4883,420,1942
1721676505.559733,-25,-21,1019,4760,446,2091
1721676505.568983,-31,-21,1023,4577,332,2170
1721676505.578233,-25,-28,1026,4655,288,2345
1721676505.587483,-21,-39,1027,4725,393,2450
1721676505.596733,-27,-41,1026,4629,376,2082
1721676505.605988,-38,-34,1024,4253,306,1522,-12811,-23358,68054,84561,33258, 156526.600, 40.0103225,-105.2441822, 1600.967,1622.295, 7.386,7.215
1721676505.615238,-44,-33,1023,3807,358,1216
1721676505.624488,-45,-34,1022,3562,568,1548
1721676505.633738,-42,-42,1022,3413,953,2143
1721676505.642988,-35,-45,1023,3203,1338,2747
1721676505.652238,-28,-43,1026,2984,1583,2896
1721676505.661488,-15,-42,1028,2669,1680,2765
1721676505.670738,-15,-28,1032,2372,1688,2397
1721676505.679993,-14,-18,1035,2127,1461,2012,-12689,-23730,68017
1721676505.689243,-5,-13,1036,2258,1268,2038
1721676505.698493,4,-16,1037,2564,1023,2073
1721676505.707743,-6,-20,1039,2932,612,2126
1721676505.716993,-13,-32,1039,3378,-44,1863
1721676505.726243,-18,-44,1037,3728,-560,1522
1721676505.735493,-20,-48,1033,3807,-840,1461
1721676505.744743,-26,-48,1029,3553,-980,1470
1721676505.754059,-35,-47,1026,3352,-1059,1540,,,,84560,33260, 156526.700, 40.0103260,-105.2441822, 1601.309,1622.637, 7.237,7.086
1721676505.763309,-35,-50,1021,3124,-1024,1890
1721676505.772559,-19,-54,1017,2923,-849,2633
1721676505.781809,-9,-56,1016,2669,-753,3167
1721676505.791059,-13,-49,1016,2415,-1059,3001
1721676505.800309,-13,-45,1014,1995,-1365,2686
1721676505.809559,-7,-43,1012,1803,-1637,2485
1721676505.818809,-11,-41,1012,1794,-1960,2353
1721676505.828003,-22,-41,1012,1750,-2354,2380,-12561,-24096,67712,84555,33269, 156526.800, 40.0103305,-105.2441820, 1601.651,1622.979, 7.102,6.969
1721676505.837253,-25,-43,1013,1794,-2608,2765
1721676505.846503,-23,-50,1013,1829,-2687,3272
1721676505.855753,-28,-57,1012,1960,-2730,3727
1721676505.865003,-33,-59,1011,1785,-2730,4060
1721676505.874253,-34,-55,1014,1427,-2617,4112
1721676505.883503,-39,-53,1015,1129,-2442,4112
1721676505.892753,-47,-51,1016,875,-2258,4025
1721676505.902008,-48,-52,1015,569,-1995,3972,-12493,-24328,67639,84563,33265, 156526.900, 40.0103335,-105.2441811, 1602.124,1623.452, 6.988,6.862
1721676505.911258,-50,-50,1017,350,-1523,3911
1721676505.920508,-50,-44,1022,88,-1024,3771
1721676505.929758,-43,-48,1027,-61,-604,3745
1721676505.939008,-17,-62,1027,-87,-70,3893
1721676505.948258,-16,-66,1026,-236,271,3526
1721676505.957508,-21,-65,1025,-533,70,2686
1721676505.966758,-20,-67,1023,-901,-167,1986
1721676505.976105,-12,-67,1018,-1207,-368,1785,-12286,-24353,67639
1721676505.985359,-14,-63,1015,-1391,-692,1820
1721676505.994613,-22,-58,1018,-1636,-1068,1522
1721676506.003867,-28,-55,1021,-1907,-1357,1085
1721676506.013121,-31,-60,1020,-2047,-1514,988
1721676506.022375,-36,-63,1021,-2126,-1540,1163
1721676506.031629,-45,-70,1021,-2336,-1427,1391
1721676506.040883,-52,-73,1022,-2695,-1155,1627
1721676506.050141,-47,-69,1022,-3106,-727,2065,-12249,-24334,67694,84556,33271, 156527.000, 40.0103383,-105.2441795, 1602.667,1623.995, 6.881,6.760
1721676506.059391,-30,-61,1025,-3552,-132,2625
1721676506.068641,-19,-55,1026,-3893,393,3027
1721676506.077891,-18,-46,1026,-4103,665,2870
1721676506.087141,-18,-35,1026,-4156,551,2345
1721676506.096391,-15,-37,1026,-4077,428,1820
1721676506.105641,-28,-28,1022,-3998,402,945
1721676506.114891,-45,-26,1016,-3823,341,-27
1721676506.124146,-57,-27,1013,-3491,437,-622,-12005,-24243,67993,84564,33269, 156527.100, 40.0103435,-105.2441788, 1602.993,1624.321, 6.773,6.656
1721676506.133396,-69,-33,1010,-3071,901,-779
1721676506.142646,-71,-45,1006,-2712,1645,-709
1721676506.151896,-70,-49,1004,-2467,2668,-350
1721676506.161146,-61,-48,1006,-2458,3823,201
1721676506.170396,-40,-50,1012,-2677,4978,1216
1721676506.179646,-18,-48,1021,-2826,5967,2458
1721676506.188896,-2,-28,1026,-3115,6580,3745
1721676506.198151,18,-23,1025,-3491,6772,4882,,,,84560,33269
1721676506.207401,30,-8,1026,-3473,6588,5661
1721676506.216651,26,-1,1029,-3298,5853,5678
1721676506.225901,34,-20,1033,-2747,4795,5162
1721676506.235151,35,-31,1034,-2100,3692,4200
1721676506.244401,13,-48,1038,-1662,2345,2047
1721676506.253651,-6,-46,1039,-1365,988,245
1721676506.262901,-15,-48,1040,-1365,0,-648
1721676506.272156,-10,-46,1042,-1391,-455,-1173,-11608,-24169,68237,,, 156527.200, 40.0103490,-105.2441794, 1603.087,1624.415, 6.662,6.548
1721676506.281406,-16,-46,1042,-1435,-788,-1278
1721676506.290656,-47,-61,1044,-1408,-1182,-1532
1721676506.299906,-54,-70,1033,-1321,-1523,-1960
1721676506.309156,7,-60,1027,-1505,-1243,-2380
1721676506.318406,-28,-61,1029,-1776,-1007,-2643
1721676506.327656,-83,-62,1035,-1951,-1453,-3955
1721676506.336906,-84,-47,1032,-2248,-1217,-5250
1721676506.346161,-77,-43,1038,-2467,-175,-3772,-11645,-23950,68249,84558,33273, 156527.300, 40.0103545,-105.2441779, 1603.419,1624.748, 6.545,6.437
1721676506.355411,-81,-25,1042,-2283,1102,-1855
1721676506.364661,-73,-20,1044,-1995,2318,-735
1721676506.373911,-48,-17,1043,-1592,3587,472
1721676506.383161,-22,-27,1032,-805,4348,1837
1721676506.392411,-10,-31,1029,-43,4672,2126
1721676506.401661,0,-46,1026,420,4646,1487
1721676506.410911,17,-54,1024,779,4462,411
1721676506.420166,34,-49,1025,928,3946,-884,-11480,-23901,68328,84554,33273, 156527.400, 40.0103592,-105.2441762, 1603.542,1624.870, 6.445,6.347
1721676506.429416,44,-53,1024,779,3123,-2135
1721676506.438666,48,-69,1022,718,2038,-3150
1721676506.447916,39,-77,1017,648,735,-4078
1721676506.457166,32,-90,1013,315,-665,-5329
1721676506.466416,32,-118,1006,-218,-1785,-6720
1721676506.475666,27,-98,1007,-1067,-2643,-8304
1721676506.484916,0,-75,1013,-2485,-3623,-9905
1721676506.494171,-5,-60,1012,-3403,-4270,-10238,-12109,-23583,68322,84557,33276
1721676506.503421,10,-56,1008,-3692,-4402,-9275
1721676506.512671,9,-57,1007,-3727,-4367,-8120
1721676506.521921,18,-109,1003,-3675,-4603,-7263
1721676506.531171,10,-79,1006,-3850,-4813,-7342
1721676506.540421,5,-70,1013,-5425,-5075,-8899
1721676506.549671,21,-79,1010,-6072,-5364,-9450
1721676506.558921,34,-93,1011,-6028,-5784,-9879
1721676506.568177,25,-79,1020,-6728,-6458,-11218,-13238,-22711,68420,,, 156527.500, 40.0103617,-105.2441756, 1603.740,1625.068, 6.348,6.268
1721676506.577427,4,-73,1027,-7787,-7333,-13213
1721676506.586677,-9,-68,1028,-8470,-7832,-14517
1721676506.595927,-8,-56,1024,-9021,-7902,-14788
1721676506.605177,-5,-58,1022,-9537,-7919,-14875
1721676506.614427,-20,-59,1016,-9887,-7998,-14840
1721676506.623677,-34,-54,1011,-10377,-8068,-14727
1721676506.632927,-31,-59,1007,-10920,-7875,-14569
1721676506.642212,-25,-66,1004,-11436,-7613,-14420,,,,84555,33276, 156527.600, 40.0103638,-105.2441752, 1604.042,1625.370, 6.255,6.193
1721676506.651462,-44,-67,1004,-12040,-7595,-14429
1721676506.660712,-54,-50,1000,-12915,-7604,-14027
1721676506.669962,-46,-32,1005,-14008,-7368,-13090
1721676506.679212,-52,-5,1009,-14805,-7009,-12058
1721676506.688462,-65,18,1010,-15365,-6624,-10859
1721676506.697712,-65,50,1012,-15443,-6020,-9372
1721676506.706962,-57,57,1016,-15216,-5303,-7622
1721676506.716217,-51,59,1018,-14402,-4717,-6274,-14105,-21520,68774,84555,33276, 156527.700, 40.0103656,-105.2441745, 1604.367,1625.695, 6.172,6.121
1721676506.725467,-66,70,1020,-13422,-4332,-5530
1721676506.734717,-74,93,1019,-12538,-3912,-4848
1721676506.743967,-66,104,1017,-11655,-3159,-4130
1721676506.753217,-48,83,1013,-10123,-2310,-3658
1721676506.762467,-36,88,1008,-8478,-1672,-3570
1721676506.771717,-41,81,1005,-7376,-1427,-3474
1721676506.780967,-32,78,999,-6020,-1584,-3772
1721676506.790222,-92,52,996,-4663,-1847,-4227,-14440,-20947,68975,84558,33282
1721676506.799472,-197,12,996,-3421,-2162,-5198
1721676506.808722,8,43,986,-2686,-1295,-4655
1721676506.817972,20,57,993,-2528,665,-4515
1721676506.827222,-64,58,1007,-2240,-272,-6519
1721676506.836472,-54,61,1011,-1662,-1094,-6642
1721676506.845722,-8,55,1008,-638,-910,-5705
1721676506.854972,-10,82,1010,420,-832,-5172
1721676506.864228,-30,101,1012,1409,-1278,-4708,-14672,-21075,68768,,, 156527.800, 40.0103672,-105.2441740, 1604.729,1626.057, 6.089,6.049
1721676506.873478,-61,100,1014,2695,-1724,-3360
1721676506.882728,-39,101,1010,4340,-1794,-622
1721676506.891978,-21,89,1009,6108,-1462,2441
1721676506.901228,-18,86,1018,7700,-1357,4786
1721676506.910478,-19,80,1027,9039,-1567,6413
1721676506.919728,-18,57,1031,10448,-1960,7192
1721676506.928978,-15,33,1030,11839,-2485,7840
1721676506.938233,-7,17,1028,12810,-2949,8181,-14630,-21887,68225,84555,33286, 156527.900, 40.0103692,-105.2441731, 1605.103,1626.431, 6.015,5.981
1721676506.947483,-30,-11,1032,13335,-3527,8050
1721676506.956733,-61,-60,1034,13537,-4052,7953
1721676506.965983,-54,-76,1026,13265,-4244,7770
1721676506.975233,-1,-103,1014,12312,-3842,7481
1721676506.984483,-4,-88,1014,10929,-3763,5976
1721676506.993733,-35,-71,1019,9240,-4489,3893
1721676507.002983,-82,-62,1012,7779,-5224,2082
1721676507.012238,-62,-49,1002,6834,-5618,1706,,,,84559,33295, 156528.000, 40.0103703,-105.2441730, 1605.341,1626.669, 5.943,5.918
1721676507.021488,-30,-46,998,6152,-5172,2581
1721676507.030738,-59,-36,1004,5600,-4944,2808
1721676507.039988,-92,-25,1007,4900,-4909,2598
1721676507.049238,-99,-13,1007,4402,-4445,3473
1721676507.058488,-81,-10,1004,4130,-3527,5460
1721676507.067738,-67,-2,1005,3947,-2232,7148
1721676507.076988,-66,-4,1008,3938,-1182,7971
1721676507.086243,-67,-11,1012,4095,-429,8102,-14648,-22436,67877
1721676507.095493,-66,-16,1017,4209,227,7385
1721676507.104743,-55,-11,1024,4183,866,6203
1721676507.113993,-40,-6,1031,4200,1505,5127
1721676507.123243,-31,-18,1032,4463,1872,3928
1721676507.132493,-35,-21,1036,4830,2126,2581
1721676507.141743,-34,-33,1037,5032,2196,1601
1721676507.150993,-37,-49,1032,5180,2257,1015
1721676507.160248,-40,-56,1024,5250,2100,315,-14416,-22711,67700,84557,33289, 156528.100, 40.0103719,-105.2441726, 1605.622,1626.950, 5.873,5.864
1721676507.169498,-24,-55,1019,4883,1872,-158
1721676507.178748,-46,-51,1014,4454,1697,-709
1721676507.187998,-66,-47,1012,4017,1391,-902
1721676507.197248,-50,-44,1007,3605,1400,-674
1721676507.206498,-70,-43,1007,3212,1715,-534
1721676507.215748,-87,-47,1007,2949,1767,-683
1721676507.224998,-56,-53,1004,2757,2056,-254
1721676507.234253,-42,-51,1005,2319,2782,-175,-14385,-22796,67700,84561,33297, 156528.200, 40.0103727,-105.2441723, 1605.906,1627.234, 5.801,5.814
1721676507.243503,-60,-52,1009,1715,2966,-447
1721676507.252753,-94,-43,1010,1269,2861,-1007
1721676507.262003,-59,-29,1012,770,3027,-963
1721676507.271253,-35,-36,1017,744,3438,-517
1721676507.280503,-64,-39,1025,875,3342,-867
1721676507.289753,-90,-37,1028,840,2861,-1549
1721676507.299003,-57,-36,1029,665,2826,-1672
1721676507.308319,-28,-34,1032,534,3097,-604,-14324,-22808,67669,84560,33293
1721676507.317569,-22,-20,1042,420,2861,-237
1721676507.326819,-28,-5,1051,377,2178,-175
1721676507.336069,-59,7,1056,639,1443,140
1721676507.345319,-58,14,1059,1243,840,901
1721676507.354569,-48,8,1058,2232,516,1575
1721676507.363819,-54,10,1063,3317,376,1820
1721676507.373069,-40,9,1067,4130,227,1986
1721676507.382325,-46,9,1068,5005,131,1732,-14337,-23315,67224,,, 156528.300, 40.0103742,-105.2441715, 1606.268,1627.596, 5.735,5.772
1721676507.391575,-50,12,1070,5898,-210,1338
1721676507.400825,-34,5,1076,6869,-490,2170
1721676507.410075,-12,0,1066,8033,-508,3281
1721676507.419325,17,-14,1058,9135,-753,2922
1721676507.428575,14,-55,1048,10168,-1383,1268
1721676507.437825,-21,-68,1027,10947,-2573,-1357
1721676507.447075,-60,-70,1005,11148,-3789,-4769
1721676507.456330,-117,-51,983,11358,-4524,-7604,,,,84560,33300, 156528.400, 40.0103750,-105.2441710, 1606.605,1627.933, 5.668,5.732
1721676507.465580,-125,-62,966,11664,-4358,-9590
1721676507.474830,-103,-83,950,12137,-3142,-10404
1721676507.484080,-108,-102,939,12548,-1873,-10684
1721676507.493330,-120,-112,939,12320,-1050,-11550
1721676507.502580,-118,-117,935,11594,-202,-12320
1721676507.511830,-117,-118,939,10597,665,-12627
1721676507.521080,-107,-134,944,9608,1540,-13117
1721676507.530335,-68,-130,956,8488,2528,-14508,-15032,-23608,66687,84557,33308, 156528.500, 40.0103751,-105.2441717, 1606.823,1628.151, 5.602,5.697
1721676507.539585,-34,-122,974,7105,3368,-15689
1721676507.548835,-24,-111,979,5837,3622,-17570
1721676507.558085,-61,-73,984,4857,3132,-19329
1721676507.567335,-34,-65,985,4235,2397,-18454
1721676507.576585,-44,-68,986,4340,1986,-16127
1721676507.585835,-55,-61,988,4725,1216,-14657
1721676507.595085,-41,-70,990,5102,455,-12837
1721676507.604340,-27,-65,997,5565,-132,-10833,-15625,-23626,66345,84561,33315, 156528.600, 40.0103760,-105.2441727, 1607.177,1628.505, 5.518,5.645
1721676507.613590,-31,-59,1006,5959,-972,-8960
1721676507.622840,-25,-67,1014,6607,-2083,-7105
1721676507.632090,-5,-79,1021,7412,-3037,-4603
1721676507.641340,12,-110,1022,8068,-3877,-1330
1721676507.650590,21,-139,1014,8409,-5014,175
1721676507.659840,-13,-175,1005,8120,-6493,-394
1721676507.669090,-36,-188,996,7254,-8199,-1470
1721676507.678345,-58,-188,987,5714,-9617,-963,-16326,-23870,65734
1721676507.687595,-66,-189,979,3780,-10667,551
1721676507.696845,-87,-177,975,1532,-11087,866
1721676507.706095,-114,-166,971,-1111,-10903,262
1721676507.715345,-140,-148,972,-3386,-10343,-272
1721676507.724595,-148,-152,967,-5302,-9442,-79
1721676507.733845,-151,-135,974,-6973,-8077,1295
1721676507.743095,-189,-105,995,-8793,-6580,3570
1721676507.752350,-177,-67,1020,-10456,-4839,6938,-15643,-24023,65972,84554,33304, 156528.700, 40.0103765,-105.2441736, 1607.439,1628.767, 5.442,5.586
1721676507.761600,-133,-59,1043,-11401,-2223,12722
1721676507.770850,-121,-68,1064,-11707,402,18462
1721676507.780100,-97,-55,1077,-11786,2231,23870
1721676507.789350,-15,-85,1088,-11987,3648,30520
1721676507.798600,47,-107,1097,-12180,4663,35542
1721676507.807850,61,-107,1101,-12976,3902,36741
1721676507.817100,19,-69,1093,-14061,1575,34781
1721676507.826386,8,-31,1092,-14848,-1112,32261,,,,84565,33306, 156528.800, 40.0103754,-105.2441742, 1607.501,1628.829, 5.394,5.549
1721676507.835636,15,21,1087,-14446,-3203,31263
1721676507.844886,-7,30,1082,-12853,-4970,31981
1721676507.854136,-61,12,1072,-10123,-6939,32795
1721676507.863386,-91,-22,1060,-7393,-8278,34308
1721676507.872636,-90,-39,1054,-5302,-8243,36295
1721676507.881886,-74,-47,1059,-4077,-7578,38158
1721676507.891136,-59,-71,1057,-3500,-6913,37975
1721676507.900391,-51,-94,1047,-2948,-6440,35507,-14367,-24841,66052,84553,33306, 156528.900, 40.0103745,-105.2441752, 1607.560,1628.888, 5.354,5.521
1721676507.909641,-92,-89,1035,-2528,-6423,31386
1721676507.918891,-129,-55,1025,-2555,-6615,27212
1721676507.928141,-142,-25,1021,-2808,-6108,25646
1721676507.937391,-130,-20,1022,-2738,-5005,26871
1721676507.946641,-110,-9,1020,-2257,-3675,28848
1721676507.955891,-114,61,1020,-1785,-2433,29452
1721676507.965141,-87,47,1013,-1015,-1400,29855
1721676507.974396,-39,11,1006,954,-298,30345,-13128,-25897,65905
1721676507.983646,-55,0,1003,2617,8,30458
1721676507.992896,-66,-51,1001,3317,-849,31867
1721676508.002146,-53,-65,995,3203,-1514,34361
1721676508.011396,-38,-85,988,1645,-1908,36356
1721676508.020646,-77,-82,986,-35,-2660,37073
1721676508.029896,-53,-82,990,-1706,-3282,36102
1721676508.039146,-53,-89,999,-2878,-3299,34588
1721676508.048401,-88,-93,1005,-3648,-3483,32235,-11480,-26947,65850,84551,33308, 156529.000, 40.0103738,-105.2441756, 1607.567,1628.895, 5.310,5.485
1721676508.057651,-78,-77,1017,-4471,-3859,30152
1721676508.066901,-65,-79,1027,-5311,-3728,30161
1721676508.076151,-62,-73,1033,-5897,-3850,30642
1721676508.085401,-66,-72,1038,-6273,-4130,30003
1721676508.094651,-85,-78,1039,-6475,-4410,28717
1721676508.103901,-107,-63,1023,-6798,-4402,27798
1721676508.113151,-137,-57,1024,-6938,-4218,27588
1721676508.122406,-149,-84,1020,-6833,-3124,28332,-9887,-27435,66253,84554,33311, 156529.100, 40.0103732,-105.2441757, 1607.427,1628.755, 5.251,5.431
1721676508.131656,-125,-74,1006,-6615,-2197,29688
1721676508.140906,-68,-88,999,-7043,-954,32261
1721676508.150156,-45,-103,1010,-7638,-762,34081
1721676508.159406,-61,-168,1013,-8470,-1628,33188
1721676508.168656,-66,-166,1004,-9397,-2477,30957
1721676508.177906,-108,-154,1013,-11182,-3010,28166
1721676508.187156,-131,-169,1002,-12853,-2450,26626
1721676508.196411,-123,-126,979,-14752,-980,25427,-8148,-27392,66979,84557,33315
1721676508.205661,-144,-86,983,-16975,822,24080
1721676508.214911,-134,-66,971,-18366,2633,24981
1721676508.224161,-121,-54,969,-18725,4471,26162
1721676508.233411,44,121,965,-18847,6413,26486
1721676508.242661,58,622,996,-18637,7883,26643
1721676508.251911,-35,471,1014,-13868,5678,29461
1721676508.261161,59,161,1008,-2336,2940,36443
1721676508.270417,75,-67,1014,6318,1268,39795,,,,,, 156529.200, 40.0103712,-105.2441759, 1607.151,1628.479, 5.182,5.363
1721676508.279667,-10,-147,1017,9625,-587,35507
1721676508.288917,-175,-124,1025,8995,-1917,28962
1721676508.298167,-208,-121,1012,6869,-1243,24176
1721676508.307417,-202,-136,1021,5312,1916,24806
1721676508.316667,-141,-126,1015,3903,5626,26827
1721676508.325917,-130,-96,1004,2013,9528,26608
1721676508.335167,-101,-171,979,315,12521,22828
1721676508.344422,-138,-175,958,-936,14682,18147,-6085,-28332,66918,84558,33330, 156529.300, 40.0103681,-105.2441765, 1606.715,1628.043, 5.084,5.282
1721676508.353672,-119,-104,942,-2931,16082,15102
1721676508.362922,-114,-65,940,-4628,17937,12530
1721676508.372172,-148,-67,949,-4725,19661,10657
1721676508.381422,-110,-98,965,-3850,21630,9038
1721676508.390672,-48,-126,966,-2695,23878,8636
1721676508.399922,-23,-143,975,-2362,25497,8470
1721676508.409172,29,-167,973,-2975,26215,7061
1721676508.418427,39,-125,962,-3692,25287,5993,-3961,-28631,67590,84558,33324, 156529.400, 40.0103676,-105.2441766, 1606.528,1627.856, 5.005,5.213
1721676508.427677,8,-26,965,-4742,23458,5950
1721676508.436927,-66,87,969,-5643,21262,5643
1721676508.446177,-105,116,972,-4348,19853,9397
1721676508.455427,-78,131,995,-1155,19346,16362
1721676508.464677,-7,128,1015,1768,20186,20807
1721676508.473927,24,109,1028,3920,20842,22837
1721676508.483177,1,74,1031,5767,20466,22583
1721676508.492432,10,27,1036,7482,19372,20991,-1239,-29406,67657,84556,33330
1721676508.501682,39,-23,1044,8777,18725,19705
1721676508.510932,10,-75,1067,9275,17867,18541
1721676508.520182,-17,-155,1082,8978,16738,18033
1721676508.529432,-28,-177,1069,8059,16450,18182
1721676508.538682,-21,-124,1068,5837,17141,20510
1721676508.547932,7,-14,1051,2923,17421,24701
1721676508.557182,9,38,1047,753,17587,28402
1721676508.566498,17,8,1038,630,17290,30091,1617,-29846,67675,,, 156529.500, 40.0103678,-105.2441770, 1606.475,1627.803, 4.922,5.133
1721676508.575748,10,3,1042,1672,17027,29933
1721676508.584998,-13,-36,1027,2407,16196,28420
1721676508.594248,-46,-130,1040,3054,15968,25086
1721676508.603498,-5,-149,1053,3002,15688,20501
1721676508.612748,37,-167,1074,1444,15645,17027
1721676508.621998,53,-161,1069,-411,15085,13903
1721676508.631248,38,-101,1067,-2283,14105,11270
1721676508.640503,87,-34,1057,-3946,13107,9546,3497,-29730,68035,84561,33326, 156529.600, 40.0103662,-105.2441769, 1606.165,1627.493, 4.840,5.054
1721676508.649753,125,-60,1071,-4462,12363,11165
1721676508.659003,65,-42,1054,-4427,11051,11515
1721676508.668253,72,-41,1036,-4707,9581,12232
1721676508.677503,75,-51,1038,-4532,8671,12862
1721676508.686753,149,-52,1050,-4646,7875,11856
1721676508.696003,186,-102,1044,-4777,6702,12810
1721676508.705253,195,-89,1043,-4935,4768,15365
1721676508.714508,102,-65,1031,-5836,2485,17535,,,,84559,33335, 156529.700, 40.0103643,-105.2441767, 1605.801,1627.129, 4.756,4.979
1721676508.723758,48,-17,1009,-6615,253,17158
1721676508.733008,13,14,995,-7148,-202,16616
1721676508.742258,-9,41,1001,-7376,218,17036
1721676508.751508,13,-2,1000,-6711,927,15557
1721676508.760758,-28,30,984,-5250,1986,15295
1721676508.770008,29,-28,991,-4313,3027,15592
1721676508.779258,41,-28,991,-3438,3806,11725
1721676508.788513,90,-28,988,-3281,3640,11646,5114,-29541,68377
1721676508.797763,106,-25,1006,-3482,3430,9432
1721676508.807013,122,-60,1013,-3570,2345,6650
1721676508.816263,136,-88,1010,-3491,1058,4348
1721676508.825513,114,-94,1005,-3981,-429,3062
1721676508.834763,111,-82,999,-5040,-1680,4646
1721676508.844013,111,-52,1002,-6413,-2590,7778
1721676508.853263,168,-39,1026,-7472,-3667,10193
1721676508.862519,224,-19,1006,-7822,-5207,11917,5914,-29113,68774,84552,33332, 156529.800, 40.0103622,-105.2441766, 1605.437,1626.765, 4.677,4.906
1721676508.871769,137,-16,1003,-7542,-7630,12477
1721676508.881019,48,-25,983,-7043,-10745,9765
1721676508.890269,47,-12,974,-6195,-12373,7385
1721676508.899519,31,-73,973,-5530,-12688,5442
1721676508.908769,34,-74,965,-4830,-12670,5197
1721676508.918019,-2,-41,995,-5118,-12058,6317
1721676508.927269,-33,-2,1034,-4943,-10947,9266
1721676508.936524,-42,40,1059,-4427,-9170,7708,6280,-28973,68920,84560,33330, 156529.900, 40.0103602,-105.2441764, 1605.032,1626.360, 4.604,4.851
1721676508.945774,-42,61,1072,-3517,-7175,6028
1721676508.955024,-37,80,1079,-1925,-5399,3552
1721676508.964274,-9,59,1095,193,-3938,52
1721676508.973524,40,11,1106,2503,-2625,-2197
1721676508.982774,119,-38,1107,4367,-1987,-875
1721676508.992024,142,-20,1080,5285,-2267,1155
1721676509.001274,131,-60,1043,5329,-3247,5180
1721676509.010529,139,-88,1037,5032,-4367,9922,6945,-29187,68652,84558,33343, 156530.000, 40.0103581,-105.2441766, 1604.611,1625.939, 4.536,4.799
1721676509.019779,171,-34,1053,3702,-5443,13510
1721676509.029029,251,2,1066,2284,-6563,15688
1721676509.038279,244,101,1089,1777,-8803,18103
1721676509.047529,71,-16,1128,2459,-12014,22478
1721676509.056779,-21,-46,1108,4332,-15917,7630
1721676509.066029,-20,-14,1072,4725,-17990,376
1721676509.075279,-22,3,1039,4970,-19347,-6895
1721676509.084534,-19,0,1020,5915,-20589,-10632
1721676509.093784,-1,22,1014,6957,-21508,-13195
1721676509.103034,18,-19,1013,7412,-22497,-13817
1721676509.112284,20,-59,1015,7910,-23249,-11122
1721676509.121534,-33,-87,1015,7805,-24054,-5950
1721676509.130784,-76,-110,1006,6869,-24089,-1007
1721676509.140034,-96,-191,988,5670,-23065,2353
1721676509.149284,-129,-113,996,4410,-21490,4873
1721676509.158539,-154,55,989,2048,-19303,4891,5853,-29504,68334,84557,33348, 156530.100, 40.0103575,-105.2441764, 1604.401,1625.729, 4.476,4.740
1721676509.167789,-134,12,1021,1112,-16022,595
1721676509.177039,-76,22,1035,2135,-12802,-718
1721676509.186289,-13,10,1047,2984,-9319,-1619
1721676509.195539,28,-12,1056,3684,-6773,-1899
1721676509.204789,35,-63,1061,4297,-5224,-954
1721676509.214039,7,-267,1038,4367,-4629,-858
1721676509.223289,-104,-574,989,3483,-4270,-2048
1721676509.232544,99,-222,999,-1085,-3605,-193,5981,-29473,68353,84558,33343, 156530.200, 40.0103565,-105.2441762, 1604.135,1625.463, 4.421,4.683
1721676509.241794,40,-137,1003,-9073,-1313,647
1721676509.251044,24,-87,985,-12460,-2092,-2503
1721676509.260294,-31,7,974,-13685,-3317,-1724
1721676509.269544,-24,56,954,-14210,-3745,-1987
1721676509.278794,-22,82,983,-12670,-3010,-3387
1721676509.288044,19,91,945,-10596,-2800,-6598
1721676509.297294,-27,39,976,-7831,-2905,-9258
1721676509.306549,-47,44,987,-5617,-3693,-11043,5908,-29205,68707,84561,33346, 156530.300, 40.0103557,-105.2441759, 1603.984,1625.312, 4.367,4.628
1721676509.315799,-55,94,989,-4445,-3413,-12819
1721676509.325049,-66,117,973,-2852,-2608,-10422
1721676509.334299,-101,101,965,-796,-1523,-8304
1721676509.343549,-101,52,964,1155,-53,-5810
1721676509.352799,-89,-15,955,2783,1846,-2214
1721676509.362049,-88,-59,955,3623,3631,1916
1721676509.371299,-91,-100,960,3325,5276,5232
1721676509.380585,-76,-131,966,2564,7166,6982,7196,-29333,68731
1721676509.389835,-67,-76,983,1313,9065,8015
1721676509.399085,19,-35,1057,-157,10858,7673
1721676509.408335,101,-2,1051,-253,12486,5766
1721676509.417585,96,36,1050,123,12267,3832
1721676509.426835,45,-14,1056,1103,10281,2056
1721676509.436085,10,-60,1053,2748,8732,358
1721676509.445335,17,-72,1053,3325,8128,-788
1721676509.454590,11,-56,1046,3054,7848,-1295,8087,-29412,68707,84557,33348, 156530.400, 40.0103560,-105.2441755, 1604.027,1625.355, 4.327,4.582
1721676509.463840,12,-47,1045,2494,7673,-1610
1721676509.473090,9,-67,1037,2127,7560,-1313
1721676509.482340,-10,-55,1035,1873,7446,-1759
1721676509.491590,-11,-33,1049,1322,7245,-2162
1721676509.500840,-8,10,1058,849,7490,-2573
1721676509.510090,14,6,1077,797,7700,-3159
1721676509.519340,24,6,1093,1383,7638,-3973
1721676509.528595,5,-4,1095,1803,7201,-4052,,,,84555,33354, 156530.500, 40.0103554,-105.2441747, 1603.905,1625.233, 4.286,4.535
1721676509.537845,9,-3,1090,2135,6790,-3990
1721676509.547095,23,0,1076,2267,6510,-3868
1721676509.556345,53,-10,1063,2267,5941,-4130
1721676509.565595,83,-74,1049,2127,5162,-5172
1721676509.574845,88,-32,1040,1908,4033,-5277
1721676509.584095,67,-5,1011,744,2047,-6747
1721676509.593345,58,-4,996,420,-140,-8523
1721676509.602600,49,-39,992,683,-1995,-8505,8557,-29443,68560,84559,33365, 156530.600, 40.0103545,-105.2441741, 1603.738,1625.066, 4.246,4.489
1721676509.611850,49,-69,988,1007,-3920,-7412
1721676509.621100,46,-67,988,937,-5670,-5854
1721676509.630350,34,-58,987,412,-7342,-4778
1721676509.639600,-28,-77,991,114,-8855,-3343
1721676509.648850,-104,-77,984,-26,-9914,-2118
1721676509.658100,-93,-78,989,-306,-9853,-254
1721676509.667350,-31,-82,998,-638,-8164,1303
1721676509.676606,12,-97,1016,-1312,-6650,1155,8538,-29278,68737
1721676509.685856,21,-89,1031,-2100,-6160,-35
1721676509.695106,34,-65,1036,-2913,-6370,-875
1721676509.704356,29,-45,1032,-3386,-6738,-1505
1721676509.713606,-9,-22,1030,-3517,-7359,-2897
1721676509.722856,-2,-20,1036,-3211,-7937,-4489
1721676509.732106,-6,11,1035,-2642,-7718,-5600
1721676509.741356,-24,46,1023,-2196,-7648,-6370
1721676509.750611,-71,9,1010,-1198,-7560,-7499,8380,-29205,68737,84560,33363, 156530.700, 40.0103540,-105.2441736, 1603.626,1624.954, 4.207,4.445
1721676509.759861,-116,-5,1013,18,-7088,-7980
1721676509.769111,-106,-56,1000,832,-5618,-6852
1721676509.778361,-105,-66,1006,1042,-3264,-5627
1721676509.787611,-139,-83,1016,385,-1094,-5478
1721676509.796861,-142,-60,1021,-376,1076,-5355
1721676509.806111,-136,-48,1026,-1373,3937,-5049
1721676509.815361,-136,-24,1031,-1846,6728,-5224
1721676509.824616,1,-102,1015,-1776,9485,-5810,9167,-29003,68957,84560,33361, 156530.800, 40.0103535,-105.2441733, 1603.592,1624.920, 4.173,4.410
1721676509.833866,8,-111,1009,-1872,11996,-6642
1721676509.843116,-6,-36,1007,-3482,12328,-9030
1721676509.852366,10,45,1000,-4725,12433,-7254
1721676509.861616,41,50,992,-4681,12573,-6274
1721676509.870866,90,1,969,-3552,12083,-5942
1721676509.880116,74,-57,995,-2423,11103,-4944
1721676509.889366,143,-11,1002,-2493,9756,-4463
1721676509.898621,116,-10,1008,-2905,8216,-4489,9637,-28771,69049,84561,33368
1721676509.907871,104,2,1019,-2712,5950,-4953
1721676509.917121,61,47,1015,-2222,3928,-5530
1721676509.926371,13,33,1022,-1548,1732,-6528
1721676509.935621,-2,2,1022,-288,560,-7272
1721676509.944871,-13,-27,1025,867,516,-6388
1721676509.954121,-6,-11,1029,1418,638,-4393
1721676509.963371,-21,6,1042,1488,918,-2844
1721676509.972626,9,23,1053,1785,1181,-1812,,,,,, 156530.900, 40.0103523,-105.2441736, 1603.439,1624.767, 4.138,4.374
1721676509.981876,17,-19,1049,2599,1312,-1619
1721676509.991126,-9,-69,1042,3640,953,-2109
1721676510.000376,-11,-112,1030,4017,498,-2695
1721676510.009626,3,-111,1025,3378,507,-3089
1721676510.018876,-2,-69,1025,1978,577,-3509
1721676510.028126,0,-51,1030,779,437,-3964
1721676510.037376,25,-38,1033,324,315,-3912
1721676510.046631,71,-30,1049,202,288,-4542,9973,-28851,69073,84553,33368, 156531.000, 40.0103512,-105.2441742, 1603.302,1624.630, 4.104,4.339
1721676510.055881,80,-29,1073,237,-272,-6213
1721676510.065131,13,-41,1089,280,-1838,-7184
1721676510.074381,-32,-51,1079,263,-3133,-7140
1721676510.083631,-56,-49,1055,35,-3448,-6939
1721676510.092881,-64,-47,1042,-577,-2827,-6519
1721676510.102131,-79,-53,1033,-1583,-1934,-6493
1721676510.111381,-43,-67,1010,-2388,-805,-6423
1721676510.120636,2,-69,1002,-3228,560,-6685,9985,-28698,69201,84554,33374, 156531.100, 40.0103504,-105.2441748, 1603.212,1624.540, 4.070,4.303
1721676510.129886,27,-49,997,-4261,1277,-8015
1721676510.139136,91,15,986,-5127,1408,-10168
1721676510.148386,92,3,984,-5416,901,-11997
1721676510.157636,37,-9,982,-4698,-727,-13117
1721676510.166886,11,1,974,-4016,-2179,-12915
1721676510.176136,-20,30,975,-3578,-2765,-12845
1721676510.185386,-20,51,976,-2861,-2739,-11752
1721676510.194641,-23,62,983,-1575,-2249,-10115,9875,-28735,69140,84553,33379
1721676510.203891,-17,70,984,-253,-1610,-8864
1721676510.213141,3,36,992,1103,-910,-7394
1721676510.222391,29,3,997,2678,-272,-6160
1721676510.231641,79,-49,1007,3632,166,-5425
1721676510.240891,117,-60,1014,4008,157,-5329
1721676510.250141,87,-48,1009,3570,-718,-6055
1721676510.259391,58,-39,1002,3395,-2337,-6248
1721676510.268647,3,-53,998,3535,-3387,-6685,10009,-28955,69097,,, 156531.200, 40.0103494,-105.2441754, 1603.101,1624.429, 4.037,4.268
1721676510.277897,-23,-76,984,3728,-4017,-6860
1721676510.287147,-32,-67,987,3763,-3754,-5635
1721676510.296397,-50,-46,987,3194,-3019,-3920
1721676510.305647,-30,-27,1008,2564,-2022,-2529
1721676510.314897,18,-5,1033,2450,-770,-1409
1721676510.324147,34,4,1057,2547,-18,-1505
1721676510.333397,-6,0,1086,3002,-123,-2205
1721676510.342652,-68,-46,1100,3614,-455,-2652,,,,84549,33376, 156531.300, 40.0103479,-105.2441760, 1602.929,1624.257, 4.003,4.232
1721676510.351902,-102,-46,1087,4174,-210,-2949
1721676510.361152,-56,2,1080,3938,1198,-2634
1721676510.370402,-58,-17,1082,3115,3088,-2853
1721676510.379652,-49,-25,1090,3124,4252,-2660
1721676510.388902,-2,-22,1099,3054,5363,-3352
1721676510.398152,66,-173,1104,2739,6580,-4664
1721676510.407402,172,-150,1079,2118,6790,-5959
1721676510.416657,41,-38,1093,-673,5153,-10019,10412,-28973,68933,84554,33381, 156531.400, 40.0103456,-105.2441762, 1602.612,1623.940, 3.965,4.189
1721676510.425907,75,21,1073,-2607,2878,-13432
1721676510.435157,130,-16,1047,-1855,1137,-14254
1721676510.444407,76,-6,1036,-1303,-604,-15015
1721676510.453657,50,7,1022,-962,-2984,-16048
1721676510.462907,0,10,1007,-481,-4690,-15943
1721676510.472157,-20,7,994,79,-5767,-14893
1721676510.481407,-28,-21,985,587,-6020,-13405
1721676510.490662,1,-62,981,1120,-5880,-11498,9844,-28930,68927,84557,33387
1721676510.499912,23,-90,983,832,-5460,-9862
1721676510.509162,7,-86,984,-148,-5373,-9529
1721676510.518412,1,-78,977,-1478,-5452,-9809
1721676510.527662,-10,-42,974,-2467,-5364,-9704
1721676510.536912,-15,-5,975,-3132,-5172,-9450
1721676510.546162,-35,23,978,-3211,-4848,-9153
1721676510.555412,-46,20,986,-2502,-4419,-8829
1721676510.564850,-37,8,992,-1303,-3579,-7543,9655,-28839,68963,,, 156531.500, 40.0103440,-105.2441759, 1602.359,1623.687, 3.923,4.144
1721676510.574100,-20,-11,991,-428,-2468,-5819
1721676510.583350,-5,-10,983,140,-1287,-4962
1721676510.592600,-5,4,978,350,-412,-4752
1721676510.601850,-16,-11,976,368,323,-4603
1721676510.611100,20,19,966,517,1041,-4358
1721676510.620350,149,34,932,700,1820,-4008
1721676510.629600,320,229,913,1418,1732,-4069
1721676510.638672,203,265,911,2809,-910,-6038,9552,-29260,68621,84555,33398, 156531.600, 40.0103406,-105.2441767, 1601.901,1623.229, 3.854,4.088
1721676510.647922,24,97,942,7683,-5924,-8138
1721676510.657172,-27,-78,954,13475,-9197,-7175
1721676510.666422,-72,-142,964,16074,-9599,-4865
1721676510.675672,-93,-172,973,15365,-8252,-2730
1721676510.684922,-116,-152,978,13423,-5740,-937
1721676510.694172,-82,-110,976,10693,-3107,-105
1721676510.703422,0,-102,990,8637,-280,332
1721676510.712677,10,-76,1002,7350,2038,0,10046,-29400,68444,84561,33394, 156531.700, 40.0103373,-105.2441777, 1601.452,1622.780, 3.777,4.019
1721676510.721927,7,-69,1012,6580,2957,-1523
1721676510.731177,7,-211,1019,6677,3395,-2232
1721676510.740427,-31,-154,1032,6125,3526,-2993
1721676510.749677,-95,-69,1026,3964,4112,-3702
1721676510.758927,-54,-71,1011,2958,5731,-3632
1721676510.768177,-39,-23,1020,2844,7953,-3002
1721676510.777427,-12,-30,1026,2459,9476,-3054
1721676510.786682,29,-40,1031,2923,10797,-3597
1721676510.795932,46,19,1049,3247,11418,-3868
1721676510.805182,116,-21,1050,3623,11602,-3894
1721676510.814432,27,56,1067,4542,10928,-4603
1721676510.823682,24,-12,1067,5119,9310,-4603
1721676510.832932,52,-54,1055,6790,9003,-3990
1721676510.842182,29,-77,1048,6808,8688,-4332
1721676510.851432,5,-108,1042,6082,7997,-5583
1721676510.860718,-11,-132,1032,5137,7638,-6598,10772,-29748,67999,84563,33396, 156531.800, 40.0103343,-105.2441784, 1601.060,1622.388, 3.696,3.954
1721676510.869968,-21,-127,1029,3710,7595,-7044
1721676510.879218,-35,-115,1019,2135,7822,-7298
1721676510.888468,-70,-64,1018,657,8067,-7508
1721676510.897718,-63,-1,1032,-358,8478,-7132
1721676510.906968,21,16,1040,-568,9992,-5863
1721676510.916218,69,-14,1054,114,10928,-5102
1721676510.925468,50,-27,1066,1007,10071,-5207
1721676510.934723,64,-24,1067,1497,8802,-5880,11328,-29888,67962,84556,33394, 156531.900, 40.0103316,-105.2441793, 1600.708,1622.036, 3.619,3.892
1721676510.943973,107,-40,1069,1575,7848,-6125
1721676510.953223,151,-99,1075,1453,6790,-6957
1721676510.962473,79,-180,1060,1112,4707,-8540
1721676510.971723,27,-86,1066,-883,2205,-9337
1721676510.980973,66,-36,1071,-3158,1373,-9205
1721676510.990223,108,-76,1069,-3333,1067,-10518
1721676510.999473,138,60,1096,-3526,-27,-10990
1721676511.008728,72,-7,1102,-3062,-2529,-6992,11206,-29644,68127,84557,33407, 156532.000, 40.0103295,-105.2441798, 1600.440,1621.768, 3.547,3.833
1721676511.017978,69,-34,1072,-1505,-4148,-5285
1721676511.027228,108,-56,1050,-988,-5469,-5872
1721676511.036478,68,-9,1029,-988,-6598,-4682
1721676511.045728,-10,32,1013,-1391,-8147,-4060
1721676511.054978,-33,55,997,-805,-9118,-3990
1721676511.064228,-41,67,991,805,-8829,-2310
1721676511.073478,-12,52,979,2398,-7875,-1348
1721676511.082733,-11,38,971,4043,-6528,-1077,11181,-30181,67749
1721676511.091983,-13,11,975,5408,-5504,-1252
1721676511.101233,-17,-51,970,6764,-4603,-1348
1721676511.110483,-1,-77,968,7359,-3544,-875
1721676511.119733,0,-118,973,7202,-2057,-403
1721676511.128983,16,-123,985,6580,-770,-622
1721676511.138233,21,-126,994,5338,376,-1120
1721676511.147483,-1,-162,998,4227,1452,-2617
1721676511.156739,48,-182,994,3282,2502,-4279,11236,-30206,67852,84558,33400, 156532.100, 40.0103271,-105.2441805, 1600.142,1621.470, 3.487,3.777
1721676511.165989,96,-162,1012,1759,3666,-6467
1721676511.175239,110,-130,1029,167,3718,-7420
1721676511.184489,126,-151,1024,-1181,3027,-7359
1721676511.193739,107,-163,1010,-1881,1977,-7849
1721676511.202989,107,-133,1002,-2940,560,-8050
1721676511.212239,119,-144,980,-4173,-735,-7578
1721676511.221489,71,-111,959,-5162,-2022,-7167
1721676511.230774,-8,-29,955,-5766,-3457,-6598,,,,84558,33414, 156532.200, 40.0103254,-105.2441809, 1599.859,1621.187, 3.441,3.731
1721676511.240024,-46,15,942,-6028,-4445,-5005
1721676511.249274,-72,35,945,-5267,-3439,-2100
1721676511.258524,-78,113,958,-3771,-1952,17
1721676511.267774,-48,128,984,-1820,148,1583
1721676511.277024,-2,151,1005,1488,2555,4051
1721676511.286274,17,106,1011,4883,4462,4751
1721676511.295524,36,32,1012,8409,5486,3823
1721676511.304779,23,-40,1029,10780,6063,2432,11785,-30255,67626,84560,33409, 156532.300, 40.0103238,-105.2441815, 1599.668,1620.996, 3.391,3.678
1721676511.314029,1,-111,1045,12023,6518,481
1721676511.323279,10,-137,1062,12215,7376,-2013
1721676511.332529,20,-173,1069,11262,8443,-3999
1721676511.341779,41,-172,1063,9853,9318,-5233
1721676511.351029,61,-170,1048,7963,9905,-6572
1721676511.360279,74,-160,1026,6265,10027,-7420
1721676511.369529,76,-122,1010,4594,9590,-7569
1721676511.378784,75,-83,999,3098,8942,-7202,12316,-30761,67205
1721676511.388034,91,-67,993,2328,8085,-6222
1721676511.397284,114,-69,993,2293,7105,-4795
1721676511.406534,93,-83,1000,2468,5678,-3772
1721676511.415784,108,-91,999,2468,4252,-3203
1721676511.425034,116,-89,1003,2555,2782,-2380
1721676511.434284,114,-87,1017,2258,1225,-1330
1721676511.443534,120,-59,1030,1785,-438,-193
1721676511.452790,70,-48,1041,1427,-2074,936,12658,-30773,67034,84560,33414, 156532.400, 40.0103236,-105.2441822, 1599.624,1620.952, 3.341,3.622
1721676511.462040,56,-64,1047,1575,-3702,1041
1721676511.471290,53,-68,1049,2057,-4489,1050
1721676511.480540,11,-89,1057,2118,-4778,1592
1721676511.489790,6,-111,1060,2162,-4857,2458
1721676511.499040,19,-118,1061,1820,-4262,2975
1721676511.508290,27,-113,1058,937,-3597,3062
1721676511.517540,0,-105,1052,44,-3212,3325
1721676511.526795,9,-72,1041,-586,-2739,3491,12786,-30712,67114,84559,33427, 156532.500, 40.0103236,-105.2441833, 1599.647,1620.975, 3.294,3.570
1721676511.536045,41,-63,1041,-1128,-2109,3001
1721676511.545295,58,-83,1031,-1443,-1523,1190
1721676511.554545,48,-115,1032,-1741,-1479,-893
1721676511.563795,21,-130,1060,-2301,-1855,-3282
1721676511.573045,27,-170,1051,-3333,-1803,-6108
1721676511.582295,81,-195,1043,-4707,-1173,-7648
1721676511.591545,87,-182,1029,-6746,-849,-6869
1721676511.600800,82,-145,1016,-9231,-1444,-6187,,,,84559,33427
1721676511.610050,80,-55,1006,-11383,-1908,-4962
1721676511.619300,20,0,978,-12661,-2459,-3220
1721676511.628550,-50,33,968,-12573,-3098,-2634
1721676511.637800,-77,22,970,-11646,-2800,-4830
1721676511.647050,-64,5,989,-9773,-1094,-5907
1721676511.656300,0,17,1021,-7883,1015,-5364
1721676511.665550,24,-2,1047,-6273,2800,-6055
1721676511.674805,60,-16,1054,-4637,3648,-7420,12805,-30023,67712,,, 156532.600, 40.0103233,-105.2441843, 1599.634,1620.962, 3.248,3.519
1721676511.684055,73,-39,1048,-3456,4217,-8470
1721676511.693305,91,-50,1026,-2537,4147,-9275
1721676511.702555,95,-70,1002,-2030,3806,-9678
1721676511.711805,87,-66,979,-1933,3255,-8925
1721676511.721055,87,-35,972,-2038,2563,-7534
1721676511.730305,78,-48,976,-1995,1750,-6108
1721676511.739555,78,-51,969,-1198,1015,-3754
1721676511.748810,69,-29,957,-297,682,-1654,13006,-29852,67803,84559,33425, 156532.700, 40.0103231,-105.2441849, 1599.607,1620.935, 3.204,3.470
1721676511.758060,113,-58,946,482,271,-1059
1721676511.767310,141,-87,941,1759,35,-9
1721676511.776560,150,-85,934,2380,-788,971
1721676511.785810,131,-87,938,2529,-1925,446
1721676511.795060,96,-111,953,2582,-3325,-875
1721676511.804310,93,-96,984,2660,-4542,-2170
1721676511.813560,73,-126,1027,2477,-5102,-3264
1721676511.822815,12,-135,1080,2284,-5469,-3220,12951,-30139,67645,84558,33440, 156532.800, 40.0103231,-105.2441854, 1599.568,1620.896, 3.160,3.422
1721676511.832065,-7,3,1083,1663,-5592,-4034
1721676511.841315,-22,52,1064,1059,-4620,-2888
1721676511.850565,-14,-5,1058,1217,-3308,-7219
1721676511.859815,-20,-76,1075,2494,-2022,-9555
1721676511.869065,5,-71,1080,2967,-543,-9547
1721676511.878315,1,-51,1068,2433,988,-8409
1721676511.887565,10,-56,1049,1794,2266,-8339
1721676511.896912,26,-65,1032,1234,3491,-8768,12982,-30187,67523,84560,33431
1721676511.906162,31,-66,1025,403,4558,-9039
1721676511.915412,44,-73,1024,-210,5355,-8952
1721676511.924662,50,-73,1030,-402,5757,-8698
1721676511.933912,50,-78,1027,-385,5766,-8094
1721676511.943162,60,-83,1011,-350,5530,-7709
1721676511.952412,68,-70,1000,-463,4943,-6782
1721676511.961662,82,-77,993,-647,3920,-5767
1721676511.970917,102,-133,1012,-490,2826,-4594,13214,-30218,67639,,, 156532.900, 40.0103220,-105.2441860, 1599.425,1620.753, 3.120,3.379
1721676511.980167,88,-64,1016,-393,1645,-1917
1721676511.989417,79,-68,1030,-866,516,-980
1721676511.998667,108,-98,1048,-1365,-315,-989
1721676512.007917,103,-79,1054,-2388,-447,-1435
1721676512.017167,125,-96,1058,-3657,-578,-1873
1721676512.026417,113,-94,1054,-4646,-823,-1593
1721676512.035667,100,-103,1065,-5801,-1418,-254
1721676512.044922,66,-90,1058,-6860,-1645,2248,,,,84552,33433, 156533.000, 40.0103212,-105.2441865, 1599.364,1620.692, 3.081,3.338
1721676512.054172,47,-57,1052,-8163,-1427,3578
1721676512.063422,29,-14,1034,-9266,-980,1575
1721676512.072672,-8,54,1004,-9555,-587,-158
1721676512.081922,45,145,940,-8662,-543,-4437
1721676512.091172,78,58,939,-6448,-1033,-9520
1721676512.100422,48,-15,985,-2572,-2197,-10334
1721676512.109672,10,-39,1031,70,-3492,-9949
1721676512.118927,20,-22,1043,1007,-4472,-10929,13055,-29852,67956,84558,33440, 156533.100, 40.0103208,-105.2441872, 1599.337,1620.665, 3.044,3.298
1721676512.128177,30,-33,1036,1409,-5347,-11918
1721676512.137427,48,-25,1028,2398,-6440,-12425
1721676512.146677,61,-27,1026,3562,-7910,-11787
1721676512.155927,63,-11,1022,4988,-9275,-8882
1721676512.165177,70,-12,1018,6292,-10474,-6493
1721676512.174427,76,-27,1015,7377,-11052,-4340
1721676512.183677,76,-51,1022,8068,-10964,-2372
1721676512.192963,91,-104,1022,8357,-10544,-1952,12463,-30273,67602,84565,33446
1721676512.202213,85,-136,1046,7744,-10098,-762
1721676512.211463,31,-123,1061,6169,-9687,43
1721676512.220713,26,-108,1064,4253,-8934,192
1721676512.229963,35,-102,1063,2424,-7700,-797
1721676512.239213,41,-85,1053,972,-6388,1137
1721676512.248463,71,-111,1043,-61,-5049,1890
1721676512.257713,21,-95,1033,-1015,-4008,3543
1721676512.266968,-26,-56,1028,-2161,-3728,6116,12725,-30175,67645,,, 156533.200, 40.0103205,-105.2441875, 1599.307,1620.635, 3.007,3.259
1721676512.276218,-39,-40,1021,-3036,-2949,7315
1721676512.285468,-22,-48,1013,-3368,-1479,7805
1721676512.294718,14,-72,1004,-3307,17,7043
1721676512.303968,41,-79,999,-3141,1050,6055
1721676512.313218,59,-77,990,-3237,1487,4698
1721676512.322468,63,-71,981,-3298,1461,2651
1721676512.331718,65,-63,980,-3071,962,148
1721676512.340973,63,-54,984,-2773,271,-2695,12805,-29998,67761,84557,33446, 156533.300, 40.0103201,-105.2441877, 1599.267,1620.595, 2.972,3.221
1721676512.350223,53,-47,986,-2415,-368,-5329
1721676512.359473,40,-38,987,-2030,-1015,-7403
1721676512.368723,28,-31,984,-1505,-1479,-8295
1721676512.377973,14,-48,977,-787,-1514,-7455
1721676512.387223,17,-157,984,-105,-1304,-6047
1721676512.396473,40,14,1012,280,-1199,-2573
1721676512.405723,12,-74,1012,-997,-350,-727
1721676512.414978,110,-140,973,-105,192,-1750,13092,-29956,67846,84560,33462, 156533.400, 40.0103200,-105.2441877, 1599.202,1620.530, 2.938,3.183
1721676512.424228,62,-121,991,175,910,-438
1721676512.433478,35,-83,1000,-1330,315,-692
1721676512.442728,51,-61,996,-2231,358,1102
1721676512.451978,49,-46,994,-2590,918,2721
1721676512.461228,66,-45,983,-2686,1190,2030
1721676512.470478,66,-47,985,-2511,1190,1365
1721676512.479728,56,-35,989,-2493,1102,1190
1721676512.488983,50,-36,990,-2423,901,288
1721676512.498233,41,-34,996,-2082,630,-70
1721676512.507483,33,-58,1003,-1671,533,-158
1721676512.516733,2,-8,1019,-1330,437,-105
1721676512.525983,5,-29,1038,-1408,560,778
1721676512.535233,9,-19,1048,-656,1321,1443
1721676512.544483,23,-27,1051,-70,1968,2388
1721676512.553733,38,-37,1047,455,2616,2196
1721676512.562989,55,-54,1049,753,3053,2030,13568,-29687,67919,84559,33466, 156533.500, 40.0103197,-105.2441877, 1599.087,1620.415, 2.908,3.148
1721676512.572239,56,-44,1045,709,3255,1837
1721676512.581489,84,-76,1042,245,3211,1155
1721676512.590739,91,-103,1042,-52,3298,726
1721676512.599989,92,-109,1044,-586,2712,437
1721676512.609239,91,-102,1045,-1575,2038,-123
1721676512.618489,87,-117,1041,-2765,1233,-350
1721676512.627739,74,-84,1044,-3850,525,-53
1721676512.636994,65,-49,1051,-4943,-272,752,13903,-29364,68109,84555,33466, 156533.600, 40.0103190,-105.2441877, 1598.943,1620.271, 2.880,3.116
1721676512.646244,53,-43,1055,-5591,-867,1872
1721676512.655494,40,-37,1052,-5661,-1462,2625
1721676512.664744,45,-31,1048,-5530,-1917,2703
1721676512.673994,39,-22,1052,-5372,-2232,3018
1721676512.683244,30,-10,1057,-5206,-2617,3071
1721676512.692494,45,-12,1052,-4768,-2932,1863
1721676512.701744,62,-7,1037,-4051,-3089,393
1721676512.710999,52,17,1025,-3290,-3413,-140,14056,-29162,68377,84556,33460, 156533.700, 40.0103184,-105.2441878, 1598.824,1620.152, 2.853,3.084
1721676512.720249,18,-3,999,-2388,-3815,1015
1721676512.729499,18,-19,987,-1338,-4008,1916
1721676512.738749,46,-23,969,-918,-3929,2502
1721676512.747999,30,-3,982,-796,-3737,2563
1721676512.757249,2,-2,1000,-595,-4209,1793
1721676512.766499,5,-24,1005,35,-4323,332
1721676512.775749,19,-98,1006,657,-3448,-1182
1721676512.785004,61,-85,1005,674,-2617,-1987,14135,-29089,68408
1721676512.794254,68,-82,1008,-201,-2258,-840
1721676512.803504,84,-117,993,-1128,-1829,-219
1721676512.812754,80,-88,991,-2073,-2092,-534
1721676512.822004,101,-93,977,-3211,-2529,1242
1721676512.831254,81,-82,961,-3578,-2625,1916
1721676512.840504,38,-50,954,-3920,-2958,1706
1721676512.849754,73,-38,973,-4138,-3352,2537
1721676512.859009,51,-18,991,-3727,-2923,3570,,,,84563,33475, 156533.800, 40.0103181,-105.2441878, 1598.748,1620.076, 2.826,3.054
1721676512.868259,41,-48,1002,-3290,-2844,3526
1721676512.877509,18,-60,1018,-2502,-2914,3246
1721676512.886759,38,-72,1028,-2336,-2678,2353
1721676512.896009,-48,-107,1038,-2502,-2258,1566
1721676512.905259,27,4,1030,-2773,-1969,577
1721676512.914509,-43,-38,1045,-3246,-788,-1112
1721676512.923759,-38,-33,1026,-2660,-79,-2328
1721676512.933014,24,-37,1028,-2266,1417,-3877,14349,-28936,68688,84562,33484, 156533.900, 40.0103175,-105.2441880, 1598.651,1619.979, 2.800,3.024
1721676512.942264,50,-44,1035,-1968,2598,-4375
1721676512.951514,58,-47,1051,-1758,3228,-4297
1721676512.960764,34,-45,1052,-1557,3351,-4017
1721676512.970014,25,-20,1047,-1365,3421,-2739
1721676512.979264,32,-24,1044,-1382,3727,-1523
1721676512.988514,36,-33,1043,-1198,4182,-1322
1721676512.997764,48,-35,1041,-866,4296,-1882
1721676513.007019,42,-20,1039,-516,4208,-2179,14691,-28924,68688,84569,33484, 156534.000, 40.0103168,-105.2441883, 1598.546,1619.874, 2.774,2.995
1721676513.016269,35,-7,1036,-183,3928,-2267
1721676513.025519,15,11,1035,429,3718,-2048
1721676513.034769,44,3,1027,1260,3360,-1978
1721676513.044019,53,-11,1023,2319,3395,-1873
1721676513.053269,42,-17,1026,3089,3141,-1759
1721676513.062519,48,-30,1025,3710,2581,-1322
1721676513.071769,59,-38,1023,4183,2135,-762
1721676513.081024,64,-48,1010,4480,1732,-902,15002,-29034,68383
1721676513.090274,73,-59,1016,4874,1146,-1444
1721676513.099524,72,-66,1012,5180,332,-1750
1721676513.108774,69,-76,1015,5189,-613,-1969
1721676513.118024,76,-88,1017,4988,-1400,-2022
1721676513.127274,72,-85,1018,4472,-2083,-2039
1721676513.136524,65,-70,1018,3833,-2932,-2127
1721676513.145774,66,-64,1017,3212,-3535,-2118
1721676513.155030,66,-65,1023,2730,-3999,-2109,14819,-29193,68353,84561,33486, 156534.100, 40.0103162,-105.2441884, 1598.460,1619.788, 2.750,2.969
1721676513.164280,71,-44,1036,2450,-4489,-2100
1721676513.173530,54,-64,1036,2232,-4979,-1645
1721676513.182780,46,-57,1037,2205,-5338,-1348
1721676513.192030,57,-66,1034,1890,-5513,-1392
1721676513.201280,30,-82,1018,1619,-5662,-1138
1721676513.210530,23,-74,1012,1182,-6020,-1453
1721676513.219780,28,-31,1015,587,-6169,-1392
1721676513.229035,37,-28,1013,359,-6309,-1112,14483,-29162,68438,84557,33486, 156534.200, 40.0103157,-105.2441886, 1598.385,1619.713, 2.725,2.942
1721676513.238285,83,-51,995,762,-6537,-1435
1721676513.247535,58,-64,997,1392,-6624,-1558
1721676513.256785,63,-73,994,1392,-7657,-1803
1721676513.266035,67,-75,999,1427,-8514,-1610
1721676513.275285,45,-78,1005,1462,-9240,-1453
1721676513.284535,20,-85,995,1514,-9853,-1838
1721676513.293785,7,-89,1005,1602,-9993,-2450
1721676513.303101,12,-96,1012,1453,-9792,-2993,,,,84564,33501
1721676513.312351,10,-90,1014,972,-9249,-2774
1721676513.321601,-12,-81,1015,394,-8715,-2337
1721676513.330851,-49,-65,1020,-280,-7937,-1689
1721676513.340101,-108,-45,1025,-673,-7123,-814
1721676513.349351,37,-10,1004,-971,-5609,262
1721676513.358601,-43,-23,1022,-840,-3570,402
1721676513.367851,15,-73,1034,149,-2722,-1409
1721676513.377198,32,-39,1034,385,-2030,-989,14251,-29205,68444,,, 156534.300, 40.0103150,-105.2441889, 1598.290,1619.618, 2.702,2.918
1721676513.386448,4,-62,1036,175,-1567,-910
1721676513.395698,5,-60,1033,193,-1715,-2302
1721676513.404948,12,-45,1031,175,-1348,-2827
1721676513.414198,17,-44,1029,158,-1015,-3780
1721676513.423448,32,-36,1026,219,-779,-4472
1721676513.432698,40,-33,1026,377,-770,-4734
1721676513.441948,26,-24,1025,613,-1068,-4542
1721676513.451142,18,-16,1015,884,-1295,-4130,14123,-29071,68444,84569,33495, 156534.400, 40.0103142,-105.2441890, 1598.150,1619.478, 2.677,2.891
1721676513.460392,17,3,1009,1295,-1383,-3492
1721676513.469642,18,7,1007,1794,-1558,-2818
1721676513.478892,20,-1,1010,2722,-1785,-2170
1721676513.488142,24,-13,1014,3684,-1864,-1593
1721676513.497392,20,-31,1019,4498,-2039,-1120
1721676513.506642,10,-37,1019,5084,-2188,-998
1721676513.515892,0,-43,1021,5294,-2232,-1033
1721676513.525147,5,-59,1020,5294,-2039,-1392,14093,-29266,68157,84561,33497, 156534.500, 40.0103137,-105.2441891, 1598.038,1619.366, 2.653,2.865
1721676513.534397,10,-74,1017,5277,-1724,-2223
1721676513.543647,13,-83,1014,5067,-1575,-2660
1721676513.552897,9,-91,1015,4454,-1593,-2967
1721676513.562147,15,-100,1017,3842,-1628,-3037
1721676513.571397,14,-106,1019,3124,-1715,-2687
1721676513.580647,13,-109,1018,2258,-1908,-2267
1721676513.589897,10,-99,1018,1304,-2013,-1742
1721676513.599152,1,-79,1016,438,-2179,-1313,14056,-29284,68243,84556,33503
1721676513.608402,-7,-70,1015,-332,-2197,-1085
1721676513.617652,-3,-61,1018,-831,-2039,-937
1721676513.626902,0,-58,1022,-1006,-1759,-648
1721676513.636152,-10,-63,1027,-962,-1610,-604
1721676513.645402,-10,-72,1031,-752,-1435,-867
1721676513.654652,-1,-84,1034,-752,-963,-1208
1721676513.663902,-6,-89,1037,-953,-578,-1663
1721676513.673157,-3,-87,1035,-1356,-289,-2293,14141,-29260,68377,,, 156534.600, 40.0103133,-105.2441891, 1597.904,1619.232, 2.629,2.841
1721676513.682407,-4,-78,1035,-1776,96,-2520
1721676513.691657,4,-65,1030,-2301,358,-2818
1721676513.700907,4,-46,1021,-2537,682,-2713
1721676513.710157,1,-28,1015,-2528,875,-2494
1721676513.719407,8,-25,1008,-2371,1050,-2625
1721676513.728657,22,-37,1007,-1855,1277,-2932
1721676513.737907,21,-44,1011,-1303,1216,-3238
1721676513.747162,23,-48,1014,-1093,901,-3465,,,,84563,33514, 156534.700, 40.0103127,-105.2441892, 1597.797,1619.125, 2.606,2.818
1721676513.756412,12,-48,1012,-1032,665,-3212
1721676513.765662,-2,-48,1009,-1085,463,-2582
1721676513.774912,-5,-48,1003,-1181,280,-1855
1721676513.784162,-1,-54,1000,-1347,358,-1042
1721676513.793412,-1,-60,1007,-1557,560,-639
1721676513.802662,-5,-61,1014,-1662,630,-368
1721676513.811912,-11,-66,1017,-1750,656,-272
1721676513.821167,3,-77,1020,-1811,1015,-210,14300,-29241,68371,84562,33510, 156534.800, 40.0103121,-105.2441896, 1597.741,1619.069, 2.585,2.796
1721676513.830417,35,-65,1032,-1741,1373,-175
1721676513.839667,37,-85,1029,-1767,1382,-744
1721676513.848917,43,-102,1024,-1566,831,-1190
1721676513.858167,28,-107,1011,-2003,245,-1934
1721676513.867417,39,-88,1007,-2511,-368,-2424
1721676513.876667,37,-57,1008,-3062,-770,-2512
1721676513.885917,25,-35,1008,-3403,-1462,-2687
1721676513.895172,1,-32,1010,-3228,-2013,-2765,14300,-29199,68591,84558,33510
1721676513.904422,0,-38,1012,-2625,-2380,-2704
1721676513.913672,7,-52,1011,-1758,-2617,-2634
1721676513.922922,-9,-18,1020,-1338,-2442,-2135
1721676513.932172,-11,-32,1022,-1260,-2293,-1558
1721676513.941422,-3,-36,1021,-393,-1925,-1147
1721676513.950672,-8,-36,1023,158,-1523,-1129
1721676513.959922,-10,-37,1021,420,-1015,-1479
1721676513.969208,-2,-45,1024,700,-525,-1890,14251,-29107,68554,,, 156534.900, 40.0103115,-105.2441901, 1597.678,1619.006, 2.564,2.774
1721676513.978458,4,-48,1025,1007,-97,-2389
1721676513.987708,4,-57,1028,1164,201,-2870
1721676513.996958,10,-63,1027,1217,437,-3343
1721676514.006208,27,-67,1022,1094,647,-3780
1721676514.015458,36,-76,1015,814,708,-4157
1721676514.024708,28,-70,1008,298,507,-4279
1721676514.033958,9,-58,1006,-350,148,-4034
1721676514.043213,9,-49,1005,-735,-193,-3352,14337,-29113,68457,84558,33523, 156535.000, 40.0103112,-105.2441904, 1597.654,1618.982, 2.543,2.754
1721676514.052463,14,-38,1007,-1102,-149,-2109
1721676514.061713,10,-24,1010,-1382,-53,-762
1721676514.070963,0,-12,1009,-1522,-9,-114
1721676514.080213,-23,-17,1004,-1242,96,8
1721676514.089463,14,6,1005,-1006,577,-429
1721676514.098713,13,0,1010,-446,1286,-1077
1721676514.107963,8,-11,1016,552,1391,-1462
1721676514.117218,11,-18,1023,1567,1338,-2538,,,,84555,33528, 156535.100, 40.0103109,-105.2441909, 1597.638,1618.966, 2.524,2.733
1721676514.126468,20,-23,1030,2538,1487,-3028
1721676514.135718,25,-31,1035,3404,1513,-3185
1721676514.144968,26,-36,1033,4209,1207,-3439
1721676514.154218,25,-39,1028,4883,822,-3702
1721676514.163468,14,-45,1026,5443,402,-4165
1721676514.172718,9,-61,1017,5959,8,-4594
1721676514.181968,12,-66,1013,6344,-210,-5023
1721676514.191223,16,-77,1013,6318,-289,-5565,14349,-29321,68243,84558,33523
1721676514.200473,4,-84,1017,6038,-412,-5408
1721676514.209723,0,-87,1021,5627,-508,-4743
1721676514.218973,-1,-84,1026,4962,-403,-3352
1721676514.228223,4,-86,1030,4104,-298,-1637
1721676514.237473,-5,-83,1032,3404,-140,-438
1721676514.246723,-18,-82,1031,2765,-184,516
1721676514.255973,-15,-75,1030,2240,-97,1155
1721676514.265229,-4,-78,1031,1812,175,1321,14428,-29516,68164,,, 156535.200, 40.0103105,-105.2441912, 1597.584,1618.912, 2.506,2.715
1721676514.274479,0,-81,1031,1654,306,1085
1721676514.283729,5,-88,1030,1497,358,245
1721676514.292979,8,-86,1028,1225,402,-762
1721676514.302229,4,-82,1026,910,288,-1680
1721676514.311479,-1,-76,1021,674,52,-2538
1721676514.320729,-1,-76,1019,464,17,-3177
1721676514.329979,2,-69,1014,333,140,-3422
1721676514.339234,1,-67,1011,245,105,-3439,14331,-29425,68078,84560,33532, 156535.300, 40.0103101,-105.2441914, 1597.511,1618.839, 2.488,2.697
1721676514.348484,2,-62,1009,219,-44,-3413
1721676514.357734,4,-63,1011,132,-202,-3019
1721676514.366984,3,-63,1014,132,-394,-2739
1721676514.376234,0,-70,1018,123,-709,-2660
1721676514.385484,-5,-76,1023,158,-980,-2792
1721676514.394734,-16,-77,1028,9,-1068,-3072
1721676514.403984,-25,-77,1032,-271,-1077,-3518
1721676514.413239,-32,-78,1034,-560,-884,-3815,14355,-29370,68164,84556,33532, 156535.400, 40.0103097,-105.2441916, 1597.443,1618.771, 2.471,2.680
1721676514.422489,-31,-79,1030,-1015,-359,-3772
1721676514.431739,-28,-69,1028,-1531,306,-3308
1721676514.440989,-15,-60,1028,-2126,988,-2494
1721676514.450239,-8,-62,1026,-2476,1548,-2013
1721676514.459489,-3,-62,1022,-2668,2003,-2092
1721676514.468739,9,-59,1019,-2686,2231,-2582
1721676514.477989,14,-51,1015,-2668,2248,-3430
1721676514.487244,9,-53,1016,-2493,2082,-4192
1721676514.496494,13,-55,1014,-2143,1855,-4515
1721676514.505744,23,-53,1012,-1750,1688,-4577
1721676514.514994,21,-52,1016,-1338,1478,-4340
1721676514.524244,19,-55,1021,-953,1190,-3973
1721676514.533494,14,-55,1023,-560,787,-3544
1721676514.542744,12,-51,1021,-166,437,-3133
1721676514.551994,17,-48,1021,272,140,-2888
1721676514.561280,26,-51,1020,630,-88,-2774,14349,-29315,68188,84563,33536, 156535.500, 40.0103093,-105.2441917, 1597.341,1618.669, 2.454,2.663
1721676514.570530,19,-58,1025,1085,-412,-2897
1721676514.579780,12,-53,1029,1645,-902,-2800
1721676514.589030,10,-50,1028,1987,-1225,-2415
1721676514.598280,-4,-39,1027,2232,-1164,-2162
1721676514.607530,-15,-35,1026,2669,-1190,-2293
1721676514.616780,-17,-42,1027,3238,-1007,-2730
1721676514.626030,-15,-54,1030,3667,-587,-3413
1721676514.635346,-7,-71,1030,3947,-27,-4087,14233,-29486,68048,84567,33545, 156535.600, 40.0103090,-105.2441918, 1597.255,1618.583, 2.437,2.647
1721676514.644596,0,-89,1035,3973,455,-4935
1721676514.653846,1,-102,1034,3684,822,-5732
1721676514.663096,5,-101,1031,3010,1146,-6099
1721676514.672346,9,-97,1030,2293,1347,-6178
1721676514.681596,15,-95,1023,1567,1338,-5950
1721676514.690846,17,-84,1016,928,1260,-5574
1721676514.700096,20,-73,1015,420,1120,-5277
1721676514.709351,17,-67,1000,219,857,-5137,14117,-29736,67950,84559,33545, 156535.700, 40.0103090,-105.2441920, 1597.211,1618.539, 2.421,2.630
1721676514.718601,20,-69,1005,140,621,-5145
1721676514.727851,22,-76,998,97,533,-5408
1721676514.737101,16,-83,999,35,350,-6134
1721676514.746351,16,-94,1007,-43,96,-6878
1721676514.755601,8,-96,1014,-306,-35,-7088
1721676514.764851,-1,-90,1013,-752,-132,-6650
1721676514.774101,-16,-83,1014,-1207,-175,-5942
1721676514.783356,-24,-74,1015,-1426,-53,-5075,14007,-29711,67907
1721676514.792606,-30,-70,1018,-1645,341,-3772
1721676514.801856,-27,-62,1019,-1758,936,-2389
1721676514.811106,-22,-55,1015,-1846,1505,-1322
1721676514.820356,-15,-49,1011,-1828,2170,-534
1721676514.829606,-4,-40,1011,-1715,2782,-525
1721676514.838856,7,-37,1014,-1373,3342,-1059
1721676514.848106,19,-41,1013,-805,3631,-2022
1721676514.857361,23,-45,1014,-315,3823,-3264,14141,-29797,67889,84566,33543, 156535.800, 40.0103092,-105.2441922, 1597.202,1618.530, 2.403,2.610
1721676514.866611,18,-47,1016,140,3885,-4445
1721676514.875861,13,-53,1021,674,3928,-5355
1721676514.885111,18,-59,1021,1208,3955,-5627
1721676514.894361,23,-60,1014,1427,4138,-5382
1721676514.903611,6,-55,1012,1523,4348,-4804
1721676514.912861,30,-58,1011,1575,4375,-4279
1721676514.922111,34,-66,1007,1689,4628,-3824
1721676514.931366,18,-61,1011,1505,4655,-3920,14282,-29913,67730,84559,33547, 156535.900, 40.0103093,-105.2441925, 1597.175,1618.503, 2.385,2.590
1721676514.940616,41,-62,1022,1409,4497,-4148
1721676514.949866,52,-69,1020,1462,4488,-3868
1721676514.959116,52,-87,1021,1462,4208,-3920
1721676514.968366,41,-90,1020,1339,3587,-3842
1721676514.977616,43,-75,1015,1024,2975,-3509
1721676514.986866,28,-69,1014,770,2310,-3133
1721676514.996116,12,-60,1004,770,1706,-3002
1721676515.005707,0,-58,1009,840,1356,-3194,,,,84565,33554, 156536.000, 40.0103093,-105.2441928, 1597.122,1618.450, 2.368,2.571
1721676515.014957,3,-63,1008,954,1286,-3465
1721676515.024207,17,-71,1018,1007,1321,-3562
1721676515.033457,30,-87,1024,753,1452,-3710
1721676515.042707,34,-89,1031,333,1540,-3798
1721676515.051957,32,-85,1033,-148,1391,-3702
1721676515.061207,24,-77,1027,-945,1233,-3702
1721676515.070457,16,-70,1027,-1540,1128,-3597
1721676515.079377,17,-63,1024,-1855,1032,-3255,14257,-29846,67767
1721676515.088627,12,-55,1024,-2100,962,-2774
1721676515.097877,4,-58,1016,-2170,1023,-2354
1721676515.107127,5,-57,1019,-2126,1268,-1978
1721676515.116377,6,-60,1021,-2021,1303,-1715
1721676515.125627,3,-61,1024,-1933,1382,-1567
1721676515.134877,5,-62,1026,-1741,1566,-1645
1721676515.144127,18,-58,1031,-1601,1767,-1567
1721676515.153382,23,-66,1031,-1373,1942,-937,14385,-29608,67791,84559,33556, 156536.100, 40.0103091,-105.2441930, 1597.087,1618.415, 2.351,2.553
1721676515.162632,24,-71,1029,-1225,1977,-578
1721676515.171882,18,-74,1029,-1286,2108,-394
1721676515.181132,10,-63,1025,-1330,2108,-359
1721676515.190382,26,-65,1028,-1312,2353,-350
1721676515.199632,18,-74,1029,-1207,2493,-114
1721676515.208882,28,-86,1031,-1058,2388,-368
1721676515.218132,37,-90,1034,-1102,2380,-578
1721676515.227387,44,-93,1023,-1531,2318,-1444,14514,-29492,68029,84566,33563, 156536.200, 40.0103089,-105.2441932, 1597.042,1618.370, 2.334,2.534
1721676515.236637,45,-89,1020,-2038,2135,-2205
1721676515.245887,30,-78,1020,-2423,1662,-2485
1721676515.255137,20,-70,1021,-2476,1163,-2030
1721676515.264387,25,-66,1023,-2800,1295,-1225
1721676515.273637,47,-61,1019,-2730,1408,-263
1721676515.282887,6,-90,1021,-2703,1312,-132
1721676515.292137,19,-62,1015,-2826,1041,577
1721676515.301453,13,-54,1016,-3123,1198,1251,14654,-29254,68139,84555,33556
1721676515.310703,6,-42,1014,-3150,1155,577
1721676515.319953,12,-39,1014,-3018,1102,-569
1721676515.329203,20,-49,1011,-2668,1181,-1645
1721676515.338453,22,-51,1009,-2161,1277,-2450
1721676515.347703,28,-52,1008,-1776,1295,-2783
1721676515.356953,40,-61,1002,-1408,1163,-2643
1721676515.366203,22,-70,996,-1058,1015,-2074
1721676515.375519,42,-79,998,-743,770,-1322,,,,,, 156536.300, 40.0103086,-105.2441934, 1596.975,1618.303, 2.318,2.517
1721676515.384769,57,-85,1002,-358,761,-27
1721676515.394019,53,-98,1006,-350,367,866
1721676515.403269,42,-103,1008,-735,-202,1391
1721676515.412519,31,-94,1012,-1251,-683,1715
1721676515.421769,18,-89,1013,-1872,-928,2091
1721676515.431019,19,-83,1011,-2371,-954,1785
1721676515.440269,22,-90,1008,-2765,-893,752
1721676515.449463,26,-95,1013,-3010,-840,-473,14788,-29248,68176,84560,33560, 156536.400, 40.0103082,-105.2441938, 1596.945,1618.273, 2.299,2.499
1721676515.458713,25,-89,1020,-3298,-884,-1103
1721676515.467963,23,-73,1023,-3657,-840,-1707
1721676515.477213,-17,-4,1020,-3955,-867,-2783
1721676515.486463,23,-25,1006,-3832,-1103,-4393
1721676515.495713,16,-66,1004,-2695,-552,-6335
1721676515.504963,-17,-60,1020,-1750,-394,-5172
1721676515.514213,12,-47,1026,-1470,-175,-3999
1721676515.523468,27,-42,1020,-1356,455,-3710,14642,-29327,68249,84564,33569, 156536.500, 40.0103078,-105.2441941, 1596.895,1618.223, 2.281,2.481
1721676515.532722,46,-58,1020,-1163,603,-3264
1721676515.541976,35,-69,1023,-682,525,-2564
1721676515.551230,-12,-76,1033,-393,131,-1680
1721676515.560484,13,-95,1037,-542,-132,-2774
1721676515.569738,43,-93,1044,-805,525,-2748
1721676515.578992,34,-101,1051,-1251,682,-2512
1721676515.588246,17,-101,1048,-1977,288,-2800
1721676515.597504,17,-83,1044,-2905,157,-3019,14617,-29235,68365,84556,33571
1721676515.606754,11,-69,1044,-3771,280,-3028
1721676515.616004,11,-66,1043,-4191,420,-3063
1721676515.625254,13,-69,1042,-4497,586,-3282
1721676515.634504,12,-68,1043,-4952,831,-3395
1721676515.643754,15,-63,1039,-5460,1050,-3772
1721676515.653004,22,-67,1032,-6011,1277,-4297
1721676515.662254,19,-80,1028,-6361,1443,-4559
1721676515.671509,21,-60,1022,-6895,1505,-4498,14599,-28839,68688,,, 156536.600, 40.0103074,-105.2441944, 1596.867,1618.195, 2.265,2.464
1721676515.680759,10,-50,1015,-7481,1601,-3807
1721676515.690009,10,-32,1008,-7743,1776,-3693
1721676515.699259,24,-15,1000,-8032,1968,-4262
1721676515.708509,29,-17,1003,-7805,2135,-4769
1721676515.717759,42,-25,1006,-7428,1942,-5163
1721676515.727009,43,-4,1016,-6877,1732,-5250
1721676515.736259,65,-25,1009,-6518,1557,-5364
1721676515.745514,87,-17,1005,-5818,1172,-5679,14178,-28552,69030,84556,33571, 156536.700, 40.0103074,-105.2441946, 1596.851,1618.179, 2.249,2.447
1721676515.754764,60,-39,1013,-5145,481,-5102
1721676515.764014,123,-96,999,-4611,-482,-4533
1721676515.773264,65,-135,1016,-4532,-1094,-4402
1721676515.782514,37,-135,1019,-5705,-2809,-6458
1721676515.791764,43,-91,1018,-7096,-3877,-8068
1721676515.801014,-1,-37,1008,-8172,-4130,-7727
1721676515.810264,-44,32,1006,-8557,-4323,-7709
1721676515.819519,-55,40,1005,-8058,-3824,-7727,,,,84561,33578, 156536.800, 40.0103073,-105.2441950, 1596.869,1618.197, 2.233,2.434
1721676515.828769,-54,45,1006,-6571,-2503,-8479
1721676515.838019,15,50,1001,-5197,-805,-8129
1721676515.847269,24,36,1007,-3867,306,-8042
1721676515.856519,10,42,1006,-2336,586,-8925
1721676515.865769,29,26,1014,-848,918,-8147
1721676515.875019,38,23,1027,455,1496,-7377
1721676515.884269,16,20,1031,1322,1592,-6160
1721676515.893524,2,24,1025,2057,1671,-5775,13885,-28460,69177,84563,33587
1721676515.902774,-23,50,1020,2748,2126,-5408
1721676515.912024,-55,110,1011,3535,2817,-4822
1721676515.921274,-30,60,996,5268,3762,-2730
1721676515.930524,10,-35,1004,7447,5136,96
1721676515.939774,48,-99,1013,8173,6203,-517
1721676515.949024,57,-93,1020,7753,6422,-613
1721676515.958274,84,-68,1015,6554,6142,1373
1721676515.967591,86,-77,1010,5609,5740,2353,14294,-28759,68804,,, 156536.900, 40.0103074,-105.2441952, 1596.875,1618.203, 2.219,2.422
1721676515.976841,74,-98,1012,4970,4882,2345
1721676515.986091,77,-124,1021,4139,3762,2327
1721676515.995341,75,-117,1036,2984,2782,2380
1721676516.004591,91,-136,1032,1269,2117,2432
1721676516.013841,119,-144,1028,-367,1461,2537
1721676516.023091,124,-131,1023,-2143,411,3202
1721676516.032341,63,-93,1027,-3998,-910,3745
1721676516.041596,20,-30,1029,-5705,-2424,3141,14465,-28454,69018,84551,33587, 156537.000, 40.0103074,-105.2441954, 1596.883,1618.211, 2.205,2.409
1721676516.050846,-5,19,1027,-6588,-3273,2555
1721676516.060096,-4,51,1022,-6308,-3518,2625
1721676516.069346,-13,66,1019,-5433,-3115,3010
1721676516.078596,-15,75,1017,-4270,-2284,2817
1721676516.087846,-10,66,1020,-2826,-1278,2021
1721676516.097096,-1,33,1025,-1330,-245,201
1721676516.106346,27,-9,1020,0,787,-2424
1721676516.115601,61,-37,1015,972,1645,-4559,14392,-28448,68981,84553,33596, 156537.100, 40.0103074,-105.2441956, 1596.871,1618.199, 2.191,2.397
1721676516.124851,63,-45,1021,1357,1820,-5705
1721676516.134101,62,-16,1021,1453,1706,-5460
1721676516.143351,56,6,1022,1392,1487,-4927
1721676516.152601,58,-1,1021,1750,936,-4270
1721676516.161851,61,-7,1025,2459,455,-3317
1721676516.171101,40,2,1029,3115,-9,-2135
1721676516.180351,36,-7,1033,3702,-368,-884
1721676516.189606,45,-23,1033,4288,-674,350,,,,84553,33596
1721676516.198856,53,-55,1033,4533,-744,1076
1721676516.208106,46,-70,1032,4533,-937,2178
1721676516.217356,20,-76,1033,4174,-1260,4217
1721676516.226606,16,-88,1030,3562,-1418,5757
1721676516.235856,22,-101,1027,2643,-1155,5320
1721676516.245106,18,-122,1016,1584,-814,4130
1721676516.254356,27,-123,1002,517,-630,2336
1721676516.263611,26,-89,999,-778,-342,341,14587,-28460,68920,,, 156537.200, 40.0103072,-105.2441958, 1596.847,1618.175, 2.178,2.384
1721676516.272861,26,-62,1002,-2073,-324,-980
1721676516.282111,33,-43,1004,-2747,-219,-2074
1721676516.291361,33,-37,1004,-2835,-193,-2967
1721676516.300611,29,-41,1001,-2738,-307,-3308
1721676516.309861,15,-46,1007,-2642,-289,-3474
1721676516.319111,8,-38,1014,-2563,-44,-3002
1721676516.328361,-9,-27,1022,-2598,358,-1960
1721676516.337616,0,-14,1029,-2668,1277,-1234,14495,-28393,69061,84562,33600, 156537.300, 40.0103070,-105.2441960, 1596.826,1618.154, 2.164,2.372
1721676516.346866,21,-20,1034,-2703,2415,-1549
1721676516.356116,32,-31,1029,-2537,3211,-2477
1721676516.365366,30,-14,1012,-2380,3753,-3492
1721676516.374616,36,-9,994,-2537,4051,-4025
1721676516.383866,42,0,988,-2283,4270,-3920
1721676516.393116,42,0,993,-1802,4165,-3798
1721676516.402366,54,-10,1002,-1268,4077,-4218
1721676516.411621,69,8,1012,-805,3841,-4699,14630,-28405,69030,84557,33606, 156537.400, 40.0103067,-105.2441962, 1596.782,1618.110, 2.152,2.360
1721676516.420871,63,45,1024,-367,3386,-4419
1721676516.430121,53,77,1032,342,2800,-3325
1721676516.439371,40,56,1045,1514,2345,-1313
1721676516.448621,49,50,1036,2897,2021,1347
1721676516.457871,60,35,1027,3798,2161,2283
1721676516.467121,69,-13,1028,4568,2275,1531
1721676516.476371,61,-41,1032,5303,1995,980
1721676516.485627,71,-47,1032,5627,1400,367,14739,-28747,68756
1721676516.494877,52,-59,1029,5592,927,-552
1721676516.504127,62,-74,1024,5312,402,-1602
1721676516.513377,27,-37,1022,4900,122,-2564
1721676516.522627,50,-96,1027,4393,-385,-3649
1721676516.531877,45,-91,1029,4323,-368,-6440
1721676516.541127,26,-97,1026,3693,-683,-6895
1721676516.550377,31,-75,1022,2888,-849,-6064
1721676516.559632,57,-75,1022,1847,-753,-6125,14569,-28796,68774,84561,33606, 156537.500, 40.0103062,-105.2441964, 1596.750,1618.078, 2.140,2.349
1721676516.568882,30,-52,1024,937,-657,-6204
1721676516.578132,31,-22,1019,140,-718,-4542
1721676516.587382,59,-19,1012,-166,-272,-2888
1721676516.596632,67,-12,1004,-166,43,-1558
1721676516.605882,55,13,996,18,43,52
1721676516.615132,38,34,997,359,-97,1015
1721676516.624382,13,51,1003,1173,-254,1321
1721676516.633820,2,45,1009,2319,-167,892,,,,84554,33611, 156537.600, 40.0103058,-105.2441965, 1596.684,1618.012, 2.130,2.339
1721676516.643070,52,-14,1009,3693,297,542
1721676516.652320,111,-104,1005,4848,1041,-595
1721676516.661570,140,-175,1006,5102,1163,-2319
1721676516.670820,117,-200,1016,3885,332,-3422
1721676516.680070,88,-163,1023,1672,-1077,-2827
1721676516.689320,62,-113,1018,-630,-2284,-1794
1721676516.698570,40,-63,1012,-2318,-3063,-1715
1721676516.707825,-2,-21,1019,-3246,-3369,-1260,14501,-28881,68652,84557,33617, 156537.700, 40.0103057,-105.2441966, 1596.656,1617.984, 2.120,2.329
1721676516.717075,-39,19,1031,-3482,-3352,-1190
1721676516.726325,-30,33,1037,-2975,-2652,-604
1721676516.735575,-3,7,1043,-2170,-1278,43
1721676516.744825,9,-17,1044,-1487,105,-455
1721676516.754075,23,-27,1043,-1111,1023,-1182
1721676516.763325,32,-24,1040,-1050,1715,-2179
1721676516.772575,34,-5,1038,-1146,2056,-2678
1721676516.781830,45,12,1035,-1102,2301,-2372,14556,-28778,68780
1721676516.791080,52,27,1037,-840,2318,-2013
1721676516.800330,64,36,1038,-428,2152,-1182
1721676516.809580,75,35,1040,193,1837,-237
1721676516.818830,75,31,1040,928,1365,420
1721676516.828080,70,9,1043,1785,726,770
1721676516.837330,65,-10,1044,2468,61,1076
1721676516.846580,66,-44,1043,2827,-455,997
1721676516.855835,20,-296,1000,2940,-1015,612,14642,-28717,68811,84561,33617, 156537.800, 40.0103050,-105.2441967, 1596.590,1617.918, 2.109,2.319
1721676516.865085,19,-337,954,2337,-1549,533
1721676516.874335,177,4,995,-2161,-1820,2275
1721676516.883585,86,105,1016,-6116,-1549,4725
1721676516.892835,-4,46,1012,-4865,-3037,3237
1721676516.902085,19,10,1014,-2922,-3912,437
1721676516.911335,22,27,1013,-1863,-3229,332
1721676516.920585,24,63,1015,-1067,-2319,1303
1721676516.929840,41,78,1011,62,-1654,1548,14630,-28796,68652,84567,33626, 156537.900, 40.0103046,-105.2441967, 1596.539,1617.867, 2.100,2.310
1721676516.939090,48,30,1008,1829,-1024,883
1721676516.948340,56,-6,1013,3579,-700,262
1721676516.957590,68,-30,1022,4550,-543,-9
1721676516.966840,54,-48,1029,4892,-412,280
1721676516.976090,49,-65,1031,4673,-342,875
1721676516.985340,46,-68,1031,4183,-62,1330
1721676516.994590,5,-223,1007,3439,192,1636
1721676517.003846,-16,-455,904,2739,341,1706,14825,-28649,68804,84555,33626, 156538.000, 40.0103042,-105.2441969, 1596.519,1617.847, 2.090,2.301
1721676517.013096,160,-76,968,-1120,43,1583
1721676517.022346,123,118,999,-6090,647,3465
1721676517.031596,30,145,1004,-5136,-508,5013
1721676517.040846,31,92,1016,-2283,-2328,2913
1721676517.050096,38,112,1047,552,-2599,3570
1721676517.059346,29,82,1042,2582,-2188,4488
1721676517.068596,48,88,1036,4454,-1645,5512
1721676517.077851,42,70,1028,6213,-1322,6151
1721676517.087101,39,45,1028,8068,-1015,5818
1721676517.096351,48,16,1025,9599,-753,4733
1721676517.105601,55,18,1029,10579,-193,4480
1721676517.114851,94,10,1013,11130,113,3596
1721676517.124101,59,50,1014,11752,-490,3036
1721676517.133351,56,53,1007,12390,-1313,2520
1721676517.142601,58,32,998,13738,-1427,1758
1721676517.151856,68,-18,987,15077,-1584,1268,15039,-29199,68103,84559,33626, 156538.100, 40.0103041,-105.2441970, 1596.492,1617.820, 2.080,2.291
1721676517.161106,12,-82,999,16284,-1698,831
1721676517.170356,-15,-381,946,16905,-1812,1190
1721676517.179606,111,-292,943,16573,-2389,3377
1721676517.188856,198,-82,947,14132,-3325,5652
1721676517.198106,126,-91,1017,11900,-4113,8085
1721676517.207356,61,-127,1046,12128,-5802,6168
1721676517.216606,66,-69,1067,11139,-7937,3876
1721676517.225861,100,-108,1069,9424,-8164,3220,14978,-29901,67620,84560,33633, 156538.200, 40.0103041,-105.2441971, 1596.494,1617.822, 2.069,2.281
1721676517.235111,8,-122,1087,8444,-8085,1933
1721676517.244361,-24,-54,1092,7149,-8374,1321
1721676517.253611,15,-11,1079,6414,-6703,2388
1721676517.262861,3,13,1068,6939,-5250,2187
1721676517.272111,-49,35,1068,7867,-4288,1890
1721676517.281361,-34,40,1060,8777,-3212,2283
1721676517.290611,-16,4,1052,9879,-1497,2038
1721676517.299927,25,-65,1038,11043,-202,778,14941,-30480,67022,84564,33631
1721676517.309177,29,-94,1038,11699,735,-665
1721676517.318427,19,-98,1040,11305,805,-1733
1721676517.327677,28,-109,1035,10570,621,-2083
1721676517.336927,12,-124,1024,9730,525,-2310
1721676517.346177,-35,-170,1023,8400,332,-2030
1721676517.355427,109,-159,1032,7062,647,-2538
1721676517.364677,106,-330,1068,5390,1478,-3938
1721676517.373932,36,-210,1029,2722,332,-2240,15069,-30413,66937,,, 156538.300, 40.0103043,-105.2441974, 1596.523,1617.851, 2.058,2.272
1721676517.383182,-53,-146,1021,-1085,-1042,-1733
1721676517.392432,-32,-171,1004,-2948,-447,0
1721676517.401682,76,-137,1002,-4375,700,516
1721676517.410932,66,-162,999,-5696,2406,980
1721676517.420182,63,-178,1012,-6816,2511,1732
1721676517.429432,68,-183,1014,-8137,2065,1995
1721676517.438682,58,-166,1014,-9327,1811,3027
1721676517.447937,43,-137,1009,-10403,1715,4296,,,,84553,33637, 156538.400, 40.0103042,-105.2441975, 1596.512,1617.840, 2.049,2.263
1721676517.457187,19,-78,1004,-11348,1680,5276
1721676517.466437,-254,-166,1045,-11716,1802,5670
1721676517.475687,159,30,1032,-11366,1128,4821
1721676517.484937,94,0,980,-11375,2870,708
1721676517.494187,24,-93,986,-8995,5276,1540
1721676517.503437,35,-111,987,-7000,4322,192
1721676517.512687,52,-778,1067,-6168,3806,-823
1721676517.521942,100,-282,1147,-6553,4786,2406,15460,-29956,67510,84552,33644, 156538.500, 40.0103041,-105.2441975, 1596.502,1617.830, 2.040,2.254
1721676517.531192,128,15,1090,-14472,1382,16773
1721676517.540442,62,161,961,-18620,612,19355
1721676517.549692,9,113,915,-17788,-447,14236
1721676517.558942,55,86,935,-14603,-1505,10237
1721676517.568192,66,89,954,-11550,-1829,8995
1721676517.577442,51,137,968,-8846,-2170,9616
1721676517.586692,34,138,957,-6387,-2617,9782
1721676517.595948,7,123,948,-3272,-2844,9983,16162,-29205,68017,84566,33642
1721676517.605198,6,111,943,-245,-2827,10298
1721676517.614448,1,103,951,2503,-2249,10648
1721676517.623698,-10,86,968,4997,-1427,11051
1721676517.632948,0,49,976,7394,-499,10333
1721676517.642198,27,23,981,9555,638,8732
1721676517.651448,20,-33,990,11078,1618,6186
1721676517.660698,6,-75,1006,12233,2388,4016
1721676517.669983,26,-105,1022,12627,3202,2003,16680,-29724,67431,,, 156538.600, 40.0103039,-105.2441977, 1596.502,1617.830, 2.030,2.246
1721676517.679233,46,-136,1035,12478,4278,787
1721676517.688483,57,-199,1031,12032,5180,183
1721676517.697733,82,-250,1025,11069,5757,262
1721676517.706983,21,-219,1021,9205,6142,-674
1721676517.716233,46,-204,1018,6677,6440,2283
1721676517.725483,47,-176,1006,4542,7157,3841
1721676517.734733,34,-155,1001,2652,7516,4401
1721676517.743988,32,-147,1003,1392,7700,5276,17523,-29675,67321,84546,33642, 156538.700, 40.0103040,-105.2441979, 1596.520,1617.848, 2.021,2.238
1721676517.753238,30,-146,1009,412,7883,5818
1721676517.762488,18,-134,1010,-358,7953,5766
1721676517.771738,37,-133,1013,-988,7805,5512
1721676517.780988,66,-140,1017,-1373,7691,5355
1721676517.790238,63,-138,1024,-1802,7358,5285
1721676517.799488,61,-130,1023,-2415,6588,4943
1721676517.808738,43,-109,1016,-3036,5783,4261
1721676517.817993,45,-83,1011,-3631,5390,3342,17919,-29583,67437,84558,33650, 156538.800, 40.0103039,-105.2441980, 1596.532,1617.860, 2.012,2.230
1721676517.827243,45,-68,1010,-3928,5153,2152
1721676517.836493,59,-52,1013,-3876,4996,481
1721676517.845743,67,-51,1019,-3692,4812,-1357
1721676517.854993,77,-50,1027,-3508,4471,-3080
1721676517.864243,84,-55,1037,-3123,4060,-4130
1721676517.873493,90,-59,1047,-2861,3605,-5049
1721676517.882743,86,-64,1053,-2800,3045,-5434
1721676517.891999,82,-64,1058,-2817,2406,-5058,,,,84564,33661
1721676517.901249,78,-67,1058,-2773,1758,-4375
1721676517.910499,70,-57,1057,-2765,1295,-3509
1721676517.919749,59,-59,1052,-2975,1102,-3045
1721676517.928999,61,-67,1047,-2957,971,-2975
1721676517.938249,63,-73,1048,-2826,997,-2468
1721676517.947499,89,-80,1047,-2922,1023,-1864
1721676517.956749,102,-85,1047,-3053,1067,-1462
1721676517.966156,100,-83,1044,-3193,735,-1339,17944,-29302,67498,,, 156538.900, 40.0103039,-105.2441981, 1596.546,1617.874, 2.002,2.221
1721676517.975406,85,-78,1041,-3272,96,-989
1721676517.984656,76,-71,1042,-3263,-447,-350
1721676517.993906,72,-76,1040,-3255,-910,437
1721676518.003156,71,-87,1037,-3202,-1278,1050
1721676518.012406,56,-83,1031,-3325,-1514,1732
1721676518.021656,37,-71,1027,-3727,-1768,2353
1721676518.030906,28,-55,1021,-4051,-1768,2738
1721676518.040070,42,-48,1019,-4077,-1540,2668,18103,-29119,67724,84567,33655, 156539.000, 40.0103037,-105.2441983, 1596.519,1617.847, 1.993,2.212
1721676518.049320,51,-45,1020,-3946,-1155,1942
1721676518.058570,58,-47,1022,-3797,-814,848
1721676518.067820,65,-52,1023,-3605,-674,-132
1721676518.077070,61,-52,1023,-3333,-560,-692
1721676518.086320,52,-49,1023,-3237,-377,-1155
1721676518.095570,52,-44,1017,-3132,-114,-1715
1721676518.104820,56,-43,1010,-2931,122,-2415
1721676518.114075,61,-44,1005,-2738,315,-3299,18005,-28942,67858,84557,33666, 156539.100, 40.0103035,-105.2441983, 1596.498,1617.826, 1.984,2.203
1721676518.123325,69,-44,1007,-2616,437,-4157
1721676518.132575,78,-50,1009,-2362,350,-5067
1721676518.141825,95,-58,1010,-1995,96,-5618
1721676518.151075,100,-58,1012,-1715,-403,-5600
1721676518.160325,92,-55,1010,-1557,-1103,-5303
1721676518.169575,84,-41,1008,-1260,-1899,-4655
1721676518.178825,74,-33,1007,-892,-2547,-3500
1721676518.188080,57,-26,1004,-341,-3063,-2275,17864,-29101,67810
1721676518.197330,47,-27,1002,140,-3352,-1733
1721676518.206580,48,-33,1000,735,-3325,-1637
1721676518.215830,58,-46,999,1374,-3168,-1829
1721676518.225080,73,-66,1000,1873,-2905,-2214
1721676518.234330,89,-77,999,2223,-2809,-2407
1721676518.243580,96,-84,1001,2354,-3037,-1925
1721676518.252830,89,-84,1004,2214,-3422,-1243
1721676518.262085,76,-84,1007,1803,-3710,-674,17773,-29241,67694,84558,33661, 156539.200, 40.0103034,-105.2441985, 1596.500,1617.828, 1.975,2.194
1721676518.271335,65,-82,1005,1427,-3894,-420
1721676518.280585,55,-77,1006,1015,-3780,-648
1721676518.289835,46,-59,1009,517,-3404,-884
1721676518.299085,33,-57,1014,342,-2862,-1129
1721676518.308335,10,-39,1015,552,-2135,-1112
1721676518.317585,6,-15,1013,1094,-1269,-823
1721676518.326835,28,-12,1008,1987,-88,-762
1721676518.336090,43,3,999,3264,1023,-1269,,,,84563,33668, 156539.300, 40.0103030,-105.2441986, 1596.428,1617.756, 1.967,2.185
1721676518.345340,61,-7,991,4445,1618,-1899
1721676518.354590,75,-45,987,5845,1863,-2660
1721676518.363840,103,-65,985,7027,1785,-3562
1721676518.373090,111,-90,994,7622,1338,-3605
1721676518.382340,92,-102,998,7902,358,-4288
1721676518.391590,95,-99,1001,7762,-639,-4577
1721676518.400840,93,-101,1000,7464,-1558,-4612
1721676518.410096,82,-107,1004,7184,-2687,-4699,17626,-29760,67279,84561,33677, 156539.400, 40.0103029,-105.2441987, 1596.447,1617.775, 1.959,2.178
1721676518.419346,74,-110,1010,6703,-3719,-4507
1721676518.428596,64,-105,1021,6318,-4507,-4253
1721676518.437846,44,-117,1031,5819,-5032,-3763
1721676518.447096,47,-124,1037,5312,-5382,-3360
1721676518.456346,53,-117,1041,4384,-5242,-3632
1721676518.465596,53,-115,1043,3273,-5049,-3693
1721676518.474846,41,-120,1043,2398,-4918,-4025
1721676518.484101,39,-115,1040,1505,-4743,-4314,17248,-29931,67248
1721676518.493351,46,-105,1037,420,-4253,-4410
1721676518.502601,43,-97,1032,-533,-3649,-4655
1721676518.511851,37,-81,1026,-1295,-3133,-5067
1721676518.521101,37,-55,1021,-1925,-2643,-5487
1721676518.530351,26,-44,1019,-2275,-2030,-5872
1721676518.539601,10,-28,1025,-2073,-1549,-6458
1721676518.548851,23,-18,1032,-1531,-1059,-6755
1721676518.558106,23,-32,1033,-848,-464,-6414,16937,-29998,67150,84555,33677, 156539.500, 40.0103026,-105.2441988, 1596.403,1617.731, 1.952,2.170
1721676518.567356,29,-47,1037,-70,-53,-5784
1721676518.576606,53,-67,1038,473,262,-5513
1721676518.585856,71,-77,1038,394,743,-5145
1721676518.595106,78,-85,1038,237,516,-4752
1721676518.604356,81,-94,1034,-192,192,-4585
1721676518.613606,82,-90,1025,-656,-254,-4209
1721676518.622856,82,-101,1019,-1277,-657,-3632
1721676518.632294,89,-122,1013,-1828,-1042,-3019,16790,-29779,67395,84557,33677, 156539.600, 40.0103026,-105.2441988, 1596.390,1617.719, 1.945,2.162
1721676518.641544,99,-139,1021,-2397,-1365,-2328
1721676518.650794,104,-143,1031,-3158,-1864,-1785
1721676518.660044,89,-140,1037,-4147,-2468,-1190
1721676518.669294,75,-146,1031,-5206,-3142,-560
1721676518.678544,61,-121,1030,-6142,-3597,70
1721676518.687794,25,-86,1031,-7183,-3754,525
1721676518.697044,7,-67,1026,-7980,-3535,490
1721676518.706299,10,-48,1018,-8146,-2870,218,,,,84557,33677, 156539.700, 40.0103023,-105.2441989, 1596.357,1617.686, 1.939,2.155
1721676518.715549,8,-31,1017,-7945,-2092,-158
1721676518.724799,9,-19,1017,-7577,-1435,-744
1721676518.734049,16,-19,1015,-6947,-674,-1435
1721676518.743299,26,-24,1018,-6002,-18,-1724
1721676518.752549,31,-33,1026,-5171,472,-2039
1721676518.761799,37,-48,1030,-4366,796,-2415
1721676518.771049,48,-65,1032,-3718,1023,-2284
1721676518.780304,53,-78,1031,-3228,1111,-1785,16778,-29461,67761
1721676518.789554,60,-94,1023,-3036,1006,-1173
1721676518.798804,58,-106,1022,-3062,953,-429
1721676518.808054,61,-112,1019,-3421,638,262
1721676518.817304,77,-112,1014,-3981,332,437
1721676518.826554,82,-111,1014,-4733,70,166
1721676518.835804,82,-101,1012,-5538,-377,-184
1721676518.845054,86,-86,1007,-6151,-980,-482
1721676518.854309,86,-68,1002,-6606,-1558,-569,16772,-28961,67999,84560,33690, 156539.800, 40.0103022,-105.2441989, 1596.353,1617.681, 1.932,2.147
1721676518.863559,78,-47,1001,-6807,-2100,-490
1721676518.872809,73,-25,1001,-6816,-2363,-324
1721676518.882059,62,2,999,-6483,-2485,210
1721676518.891309,52,11,991,-5923,-2555,831
1721676518.900559,55,25,981,-5188,-2249,1023
1721676518.909809,38,62,967,-4165,-1750,1942
1721676518.919059,21,33,963,-2485,-1715,2773
1721676518.928314,73,-10,985,-656,-980,1793,16809,-28851,68121,84562,33694, 156539.900, 40.0103019,-105.2441991, 1596.331,1617.659, 1.926,2.140
1721676518.937564,51,-62,994,762,-315,516
1721676518.946814,53,-75,1009,1654,-167,26
1721676518.956064,35,-66,1015,1882,-27,-289
1721676518.965314,9,-58,1022,1812,288,-727
1721676518.974564,7,-40,1027,1952,918,-1427
1721676518.983814,20,-32,1021,2424,1776,-2380
1721676518.993064,22,-46,1013,3150,2520,-3334
1721676519.002320,24,-47,1015,3894,3097,-3833,16870,-29187,67889,84554,33692
1721676519.011570,38,-47,1020,4542,3482,-4235
1721676519.020820,51,-54,1016,5084,3823,-4227
1721676519.030070,53,-52,1018,5513,3955,-3737
1721676519.039320,48,-47,1017,5793,3762,-2870
1721676519.048570,56,-47,1012,6073,3491,-2057
1721676519.057820,56,-45,1010,6510,3202,-1365
1721676519.067070,50,-41,1012,6598,3088,-735
1721676519.076325,49,-43,1011,6825,3001,-429,17034,-29632,67456,,, 156540.000, 40.0103019,-105.2441992, 1596.333,1617.661, 1.919,2.132
1721676519.085575,56,-55,1017,7044,2870,-412
1721676519.094825,63,-66,1023,7175,2940,-307
1721676519.104075,67,-70,1029,7114,2957,-193
1721676519.113325,77,-79,1029,6948,2922,-420
1721676519.122575,88,-83,1031,6799,2791,-412
1721676519.131825,88,-88,1031,6432,2625,-385
1721676519.141075,84,-98,1025,5977,2283,-727
1721676519.150330,77,-97,1021,5469,1977,-867,,,,84560,33694, 156540.100, 40.0103013,-105.2441995, 1596.311,1617.639, 1.913,2.125
1721676519.159580,80,-94,1021,4787,1671,-788
1721676519.168830,75,-77,1016,4192,1478,-902
1721676519.178080,71,-77,1011,3658,1365,-954
1721676519.187330,70,-78,1014,3474,1128,-972
1721676519.196580,69,-81,1016,3282,1067,-840
1721676519.205830,67,-87,1015,3159,1093,-928
1721676519.215080,57,-90,1015,3045,1146,-1287
1721676519.224335,57,-93,1009,2783,1233,-1934,17132,-29913,67193,84559,33696, 156540.200, 40.0103012,-105.2441996, 1596.291,1617.619, 1.905,2.117
1721676519.233585,57,-89,1006,2319,1592,-2459
1721676519.242835,59,-88,1003,1864,1977,-2678
1721676519.252085,59,-83,998,1497,2327,-2704
1721676519.261335,60,-80,998,1505,2441,-2442
1721676519.270585,70,-79,997,1418,2432,-1829
1721676519.279835,72,-79,999,1514,2353,-910
1721676519.289085,72,-81,1001,1514,2047,157
1721676519.298432,71,-85,1002,1479,1732,1155,17279,-30090,67077,84560,33701
1721676519.307682,46,-104,1014,1409,1330,1933
1721676519.316932,58,-118,1017,1365,1006,2336
1721676519.326182,82,-129,1022,1050,866,1741
1721676519.335432,88,-150,1029,254,612,1120
1721676519.344682,86,-157,1032,-621,43,595
1721676519.353932,82,-151,1034,-1863,-683,-35
1721676519.363182,78,-138,1037,-3342,-1304,-53
1721676519.372437,77,-113,1041,-4830,-1689,-158,17254,-29791,67181,,, 156540.300, 40.0103013,-105.2441996, 1596.311,1617.639, 1.897,2.109
1721676519.381687,72,-91,1045,-6046,-2100,-525
1721676519.390937,57,-68,1050,-6755,-2512,-1217
1721676519.400187,50,-40,1054,-7113,-2687,-1864
1721676519.409437,45,-24,1057,-7113,-2477,-2302
1721676519.418687,43,-13,1055,-6693,-2135,-2564
1721676519.427937,51,-2,1053,-5985,-1654,-2643
1721676519.437187,51,-1,1046,-5188,-1129,-2914
1721676519.446442,54,-7,1036,-4051,-823,-3063,17102,-29718,67346,84556,33701, 156540.400, 40.0103010,-105.2441997, 1596.267,1617.595, 1.889,2.100
1721676519.455692,60,-14,1027,-2782,-665,-2932
1721676519.464942,67,-25,1024,-1566,-543,-2625
1721676519.474192,79,-47,1017,-516,-578,-1987
1721676519.483442,94,-60,1009,280,-797,-1287
1721676519.492692,97,-62,1001,674,-1313,-744
1721676519.501942,81,-68,1006,692,-1873,-569
1721676519.511192,77,-72,991,779,-2459,-482
1721676519.520478,76,-75,993,849,-2853,-53,16998,-29669,67498,84551,33699, 156540.500, 40.0103008,-105.2441998, 1596.231,1617.559, 1.881,2.091
1721676519.529728,81,-85,996,709,-3098,577
1721676519.538978,83,-103,996,543,-3247,1163
1721676519.548228,64,-93,1000,237,-3334,1435
1721676519.557478,73,-112,999,-411,-3658,1977
1721676519.566728,61,-117,1005,-1058,-3509,2161
1721676519.575978,42,-127,1014,-2012,-3352,1610
1721676519.585228,43,-137,1016,-2966,-3002,1548
1721676519.594483,30,-158,1021,-3928,-2450,1207,,,,84555,33710
1721676519.603733,49,-112,1032,-5040,-2022,490
1721676519.612983,43,-101,1017,-6230,-1540,0
1721676519.622233,45,-75,1021,-6588,-963,542
1721676519.631483,35,-54,1014,-7008,-779,-604
1721676519.640733,44,-30,1012,-6860,-359,-919
1721676519.649983,42,-4,1009,-6335,-53,-1059
1721676519.659233,49,4,1006,-5337,253,-1050
1721676519.668488,39,6,995,-4103,472,-1059,16973,-29357,67749,,, 156540.600, 40.0103005,-105.2441998, 1596.175,1617.503, 1.875,2.083
1721676519.677738,46,9,989,-2555,647,-954
1721676519.686988,43,-54,1010,-892,726,-455
1721676519.696238,82,-72,1020,167,997,682
1721676519.705488,70,-77,1017,639,1041,1872
1721676519.714738,59,-83,1013,718,778,2721
1721676519.723988,80,-54,991,569,428,2975
1721676519.733238,94,-52,973,464,192,2791
1721676519.742493,92,-72,973,805,-132,2703,17126,-29241,67755,84555,33705, 156540.700, 40.0103000,-105.2441997, 1596.093,1617.421, 1.868,2.075
1721676519.751743,75,-81,987,1217,-622,2703
1721676519.760993,66,-82,998,1042,-1409,2248
1721676519.770243,51,-89,1003,709,-1864,1443
1721676519.779493,49,-111,1005,473,-1943,857
1721676519.788743,70,-120,1012,175,-1847,498
1721676519.797993,83,-112,1020,-437,-1759,306
1721676519.807243,74,-97,1025,-1338,-1838,253
1721676519.816498,70,-69,1026,-2003,-2135,166,17120,-29125,67889,84559,33716, 156540.800, 40.0102997,-105.2441998, 1596.040,1617.368, 1.861,2.067
1721676519.825748,71,-54,1029,-2362,-2328,280
1721676519.834998,67,-58,1030,-2310,-2538,437
1721676519.844248,47,-44,1037,-2152,-2748,621
1721676519.853498,30,-24,1021,-1811,-2993,1111
1721676519.862748,48,-13,1025,-945,-3054,665
1721676519.871998,32,-9,1026,385,-2905,61
1721676519.881248,20,-32,1028,1785,-3107,-639
1721676519.890503,19,-25,1025,3395,-3150,-683,16882,-29376,67730,84559,33716
1721676519.899753,15,-36,1029,4515,-2678,-2363
1721676519.909003,19,-38,1032,5102,-2127,-3212
1721676519.918253,24,-56,1033,5338,-1374,-3702
1721676519.927503,37,-87,1024,5548,-648,-3238
1721676519.936753,89,-158,1008,5487,175,-1024
1721676519.946003,75,-155,1023,4708,752,525
1721676519.955253,53,-116,1032,2739,350,1023
1721676519.964600,52,-91,1022,1173,35,595,,,,,, 156540.900, 40.0102992,-105.2442000, 1595.988,1617.316, 1.855,2.059
1721676519.973850,70,-65,1013,315,-35,428
1721676519.983100,84,-63,1009,79,-245,691
1721676519.992350,98,-79,1004,324,-884,848
1721676520.001600,101,-91,998,587,-2004,1776
1721676520.010850,85,-98,989,604,-3308,2905
1721676520.020100,80,-108,982,665,-4874,4121
1721676520.029350,58,-90,987,753,-6659,5232
1721676520.038575,30,-56,1008,639,-8260,6028,16925,-29547,67620,84557,33716, 156541.000, 40.0102990,-105.2442000, 1595.921,1617.249, 1.850,2.052
1721676520.047825,44,-26,1007,613,-9310,6510
1721676520.057075,25,-23,1003,1365,-9879,6720
1721676520.066325,6,8,1010,2442,-10448,7008
