;Title, http://www.gcdataconcepts.com, LSM6DSM, BMP384, GPS
;Version, 2579, Build date, Jan 22 2024,  SN:CCDC2023B4057AC
;Start_time, 2024-07-22, 19:50:26.695
;Uptime, 5,sec,  Vbat, 3862, mv, EOL, 3500, mv
;Deadband, 0, counts
;DeadbandTimeout, 0.000,sec
;BMP384, SI, 0.100,sec, Units, Pa, mdegC
;Alt Trigger disabled
;LSM6DSM, SR,104,Hz, Units, mG, mdps, fullscale gyro 250dps, accel 4g
;Magnetometer, SR,10,Hz, Units, nT, Temperature, 37,degC
;CAM_M8 Gps, SR,10,Hz
;Gps Sats, TOW, 157845000, ver, 1, numSat, 21
;, gnssId, svId, cno, elev, azmith, prRes, flags,inUse
;, GPS, 008, 00, 12, 321, 0, 0x00001911
;, GPS, 010, 00, 47, 282, 0, 0x00001911
;, GPS, 013, 00, 03, 037, 0, 0x00001911
;, GPS, 015, 00, 30, 049, 0, 0x00001911
;, GPS, 016, 25, 01, 263, 0, 0x00001913
;, GPS, 018, 00, 60, 114, 0, 0x00001911
;, GPS, 023, 00, 70, 349, 0, 0x00001911
;, GPS, 024, 00, 28, 103, 0, 0x00001911
;Time, Ax, Ay, Az, Gx, Gy, Gz, Mx, My, Mz, P, T, TOW, Lat,Lon, Height(m), MSL(m), hdop(m), vdop(m)
1721677826.756650,-59,13,1041,2835,-420,1198,-30267,34936,41705,84464,38877, 157851.000, 40.0103539,-105.2441248, 1606.520,1627.848, 1094.520,773.942
1721677826.766045,-45,15,1030,2083,-158,-1549
1721677826.775440,-29,18,1026,1540,-420,-2205
1721677826.784835,-34,21,1026,910,-910,-2643
1721677826.794230,-46,15,1028,473,-1610,-2538
1721677826.803625,-59,7,1035,70,-2188,-2223
1721677826.813020,-55,9,1036,-428,-2459,-1462
1721677826.822415,-61,14,1030,-953,-2345,-578
1721677827.217132,-71,28,1033,-1487,-2232,516,-30316,34777,41485,84460,38874
1721677827.226523,-84,40,1040,-2091,-1829,1242
1721677827.235914,-83,47,1045,-2511,-1260,1128
1721677827.245305,-71,51,1046,-2721,-613,455
1721677827.254696,-63,52,1046,-2800,-27,-18
1721677827.264087,-61,51,1046,-2590,175,-385
1721677827.273478,-67,50,1046,-2336,43,-420
1721677827.282869,-70,47,1042,-2100,-237,-447
1721677827.292266,-68,48,1040,-1750,-490,-525,-30358,35058,41424,84461,38861
1721677827.301657,-64,48,1034,-1478,-718,-718
1721677827.311048,-71,47,1033,-1233,-1015,-788
1721677827.320439,-73,51,1036,-1146,-1339,-753
1721677827.329830,-82,45,1042,-1076,-1567,-569
1721677827.339221,-90,39,1046,-980,-1742,-595
1721677827.348612,-97,39,1051,-927,-1584,-858
1721677827.358003,-109,43,1052,-945,-1287,-1252
1721677827.367401,-104,46,1051,-901,-753,-1899,,,,84459,38859, 157851.200, 40.0103539,-105.2441248, 1606.520,1627.848, 1094.582,773.986
1721677827.376792,-100,49,1050,-813,-35,-2897
1721677827.386183,-84,50,1044,-638,586,-3597
1721677827.395574,-65,47,1037,-271,1067,-4244
1721677827.404965,-54,33,1032,132,1146,-4568
1721677827.414356,-47,27,1033,464,778,-4332
1721677827.423747,-43,23,1033,622,227,-3579
1721677827.433138,-52,19,1032,744,-342,-2722
1721677827.442565,-62,21,1032,805,-902,-1864,-30200,34960,41473,,, 157851.300, 40.0103539,-105.2441248, 1606.520,1627.848, 1094.624,774.016
1721677827.451956,-77,20,1038,744,-1252,-1479
1721677827.461347,-81,25,1040,692,-1199,-1575
1721677827.470738,-78,29,1039,639,-963,-1742
1721677827.480129,-72,31,1032,578,-657,-1882
1721677827.489520,-62,39,1025,508,-420,-1943
1721677827.498911,-66,31,1021,482,-245,-1952
1721677827.508302,-65,24,1022,447,-280,-1864
1721677827.517700,-68,20,1022,359,-412,-1488,-30200,35009,41442,84458,38836, 157851.400, 40.0103539,-105.2441248, 1606.520,1627.848, 1094.674,774.051
1721677827.527091,-75,17,1026,193,-595,-858
1721677827.536482,-78,27,1031,-43,-447,-158
1721677827.545873,-88,32,1036,-385,-254,437
1721677827.555264,-77,41,1038,-525,-70,455
1721677827.564655,-68,49,1035,-586,323,-53
1721677827.574046,-60,51,1033,-472,402,-560
1721677827.583437,-61,53,1031,-262,122,-928
1721677827.592864,-74,50,1034,123,-350,-858,-30157,34906,41436,84467,38836
1721677827.602255,-89,39,1042,560,-858,-735
1721677827.611646,-82,34,1043,989,-1129,-735
1721677827.621037,-84,25,1040,1182,-1050,-569
1721677827.630428,-76,35,1037,1138,-919,-184
1721677827.639819,-72,40,1031,893,-674,140
1721677827.649210,-69,30,1027,648,-447,-70
1721677827.658601,-60,7,1009,473,-307,-508
1721677827.667999,-56,-11,1003,149,-420,-420,-30426,35107,41235,84461,38829, 157852.500, 40.0103539,-105.2441248, 1606.520,1627.848, 1095.699,774.776
1721677828.222901,-159,104,1056,5093,-2118,-10955
1721677828.232311,-174,14,1061,9975,-3885,-10098
1721677828.241721,-79,-81,1070,12233,-3745,-7814
1721677828.251131,15,-180,1057,11699,-2468,-5653
1721677828.260541,-15,-209,1048,8173,-2512,-1759
1721677828.269958,-111,-30,1044,2039,-4367,1680,-31970,35296,39672,84460,38780, 157852.500, 40.0103539,-105.2441248, 1606.520,1627.848, 1095.699,774.776
1721677828.279368,-202,115,1036,-4795,-5600,1391
1721677828.288778,-162,183,1039,-8242,-5137,-3640
1721677828.298188,-99,174,1044,-7621,-3465,-9293
1721677828.307598,-70,102,1052,-4348,-2748,-11848
1721677828.317008,45,-16,1054,-481,-3518,-11559
1721677828.326418,60,-118,1047,2092,-5338,-7665
1721677828.335828,-12,-102,1046,1943,-9275,-1829
1721677828.345245,-126,-21,1042,-691,-13283,2152,-32257,35650,39172,,, 157852.600, 40.0101703,-105.2442144, 1606.520,1627.848, 286.648,772.643
1721677828.354655,-213,37,1040,-3605,-15374,2555
1721677828.364065,-253,88,1048,-5705,-14814,376
1721677828.373475,-244,79,1043,-6702,-12390,-3527
1721677828.382885,-234,96,1050,-7148,-9030,-6458
1721677828.392295,-286,46,1095,-7603,-5732,-6720
1721677828.401705,-307,-164,1036,-7761,-2564,-6458
1721677828.411115,-18,-192,310,-10211,-683,-7762
1721677828.420501,-232,65,1087,-13553,-7289,-7805,-32037,36328,38623,84465,38759, 157852.600, 40.0101703,-105.2442144, 1606.520,1627.848, 286.648,707.107
1721677828.429911,-240,245,892,-19276,3508,910
1721677828.439321,-180,211,924,-22286,3648,-18
1721677828.448731,-110,231,1025,-18978,10263,-2704
1721677828.458141,-67,255,905,-15540,11016,-5635
1721677828.467551,-56,291,914,-10718,10902,-6099
1721677828.476961,-9,268,908,-4550,8478,-5093
1721677828.486371,9,201,928,2967,5311,-3544
1721677828.495910,-29,154,941,10465,1277,-1208,-32086,35980,38775,84467,38750
1721677828.505320,-56,47,963,16879,-3299,-105
1721677828.514730,-105,-100,972,21333,-7000,227
1721677828.524140,-68,-125,992,22217,-9468,17
1721677828.533550,-163,-123,1013,18200,-10194,-202
1721677828.542960,-224,-75,1032,12005,-10133,-1225
1721677828.552370,-209,-55,1051,5627,-7893,-2188
1721677828.561780,-98,-41,1061,447,-4148,-1619
1721677828.571075,-44,-7,1062,-3438,-919,1286,-32617,35760,38488,84464,38746, 157852.600, 40.0101703,-105.2442144, 1606.520,1627.848, 286.648,707.107
1721677828.580482,-99,127,1067,-5950,-333,6440
1721677828.589889,-146,247,1067,-6650,-1514,11497
1721677828.599296,-99,220,1034,-4156,-2485,12118
1721677828.608703,-13,140,999,1155,-3028,8715
1721677828.618110,-41,60,986,5548,-5102,4462
1721677828.627517,-130,2,1009,7525,-8750,2835
1721677828.636924,-235,-33,1048,6782,-11953,1373
1721677828.646301,-141,-372,1068,4087,-12635,796,,,,,, 157852.600, 40.0101703,-105.2442144, 1606.520,1627.848, 286.648,707.107
1721677828.655708,-106,-221,1116,-166,-10737,1557
1721677828.665115,-132,22,1059,-11313,-9503,7280
1721677828.674522,-268,232,1014,-20265,-8479,15653
1721677828.683929,-270,322,1041,-22216,-6790,14665
1721677828.693336,-262,388,1027,-18007,-3912,13308
1721677828.702743,-140,202,1003,-10106,-1882,8872
1721677828.712150,-75,85,997,-1015,-1007,4182
1721677828.721618,-27,-283,941,4235,-2888,1811,-33245,35754,37884,84462,38737
1721677828.731025,-211,-163,991,4612,-6502,2003
1721677828.740432,-264,-81,1064,-2213,-9468,5608
1721677828.749839,-230,91,1053,-9222,-8225,5573
1721677828.759246,-156,231,1006,-13991,-4769,6343
1721677828.768653,-173,332,965,-14122,-2144,6457
1721677828.778060,-249,341,928,-9292,-2188,6781
1721677828.787467,-170,215,906,-997,-3133,4375
1721677828.796874,-82,120,912,7613,-3544,-1873,-33721,35571,37408,84456,38723, 157852.700, 40.0102418,-105.2440742, 1650.232,1671.560, 424.429,515.716
1721677828.806277,-103,17,943,13248,-5285,-3308
1721677828.815680,-352,-33,1019,16092,-8374,1391
1721677828.825083,-245,0,1059,16004,-9328,4961
1721677828.834486,-140,50,1012,13983,-5408,3202
1721677828.843889,-217,9,984,11629,-2407,4847
1721677828.853292,-300,157,1052,9905,-2022,8347
1721677828.862695,-76,72,1037,8777,997,1881
1721677828.872039,-183,116,1001,9844,1198,2695,-34112,34899,37646,84458,38723, 157852.700, 40.0102418,-105.2440742, 1650.232,1671.560, 424.429,515.716
1721677828.881442,-209,156,1066,10500,-972,5783
1721677828.890845,-180,130,1134,12207,-1427,3281
1721677828.900248,-152,82,1134,14867,-1068,2625
1721677828.909651,-113,55,1088,16555,-945,3928
1721677828.919054,-142,-59,1080,17614,-1427,6133
1721677828.928457,-60,-154,1073,17360,-2450,6588
1721677828.937860,-305,-54,1084,14245,-3360,8715
1721677828.947174,-296,-29,1118,8733,-3982,10080,-34381,34393,37561,,, 157852.800, 40.0102868,-105.2440298, 1665.555,1686.883, 356.012,412.024
1721677828.956569,-190,-115,1151,4008,-412,4165
1721677828.965964,-145,-13,1124,-936,3342,1391
1721677828.975359,-128,53,1090,-6938,4891,3823
1721677828.984754,-90,132,1060,-10211,4987,5573
1721677828.994149,4,175,1031,-10526,3946,4567
1721677829.003544,-108,205,1016,-8312,1006,2345
1721677829.012939,-187,194,1021,-4077,-3999,691
1721677829.022338,-200,120,1042,613,-7237,-4262,-34313,35180,37341,84466,38712
1721677829.031733,-166,-14,1053,4559,-8593,-10737
1721677829.041128,-264,34,1057,5863,-9328,-12600
1721677829.050523,-288,93,1035,4270,-9494,-10850
1721677829.059918,-335,138,1009,2879,-7692,-11988
1721677829.069313,-273,200,983,2643,-4892,-13554
1721677829.078708,-206,171,957,3632,-1549,-16039
1721677829.088103,-191,124,970,6012,490,-18244
1721677829.097473,-219,88,1004,8059,700,-18489,,,,84473,38705, 157852.900, 40.0105757,-105.2442198, 1711.704,1733.032, 328.258,499.977
1721677829.106868,-134,21,1007,9267,157,-17719
1721677829.116263,-165,-111,1063,9625,192,-16337
1721677829.125658,-543,-31,1089,8190,-1322,-8750
1721677829.135053,-283,-150,1062,4209,402,-9363
1721677829.144448,-132,-94,1065,-385,7997,-17483
1721677829.153843,-149,33,1019,-7516,11768,-16267
1721677829.163238,-245,56,1030,-13571,12057,-14683
1721677829.172637,-238,43,1075,-16187,11558,-17273,-33489,36053,37530,84475,38692, 157853.000, 40.0106022,-105.2442171, 1708.486,1729.814, 272.089,334.149
1721677829.182028,-34,57,1069,-17386,12005,-23153
1721677829.191419,-81,119,1058,-18007,11366,-25244
1721677829.200810,-121,134,1061,-17211,7157,-18402
1721677829.210201,-71,103,1081,-14708,3543,-13134
1721677829.219592,16,12,1071,-11488,857,-11830
1721677829.228983,169,-65,1072,-9380,-2599,-11139
1721677829.238374,-87,181,1038,-9922,-8742,-8103
1721677829.247772,-237,435,935,-11847,-16844,-4340,-33288,37341,36749,,, 157853.100, 40.0105902,-105.2442033, 1704.814,1726.142, 234.860,283.759
1721677829.257163,-206,384,848,-9598,-20335,-13134
1721677829.266554,-92,231,807,-2441,-21105,-27493
1721677829.275945,-183,146,869,4542,-22628,-36033
1721677829.285336,-100,1,960,8689,-25655,-35482
1721677829.294727,-130,-339,1082,10632,-26600,-31483
1721677829.304118,-854,-311,1176,9267,-28858,-21114
1721677829.313509,-340,104,1243,-1128,-25979,-16818
1721677829.322906,-523,71,1114,-13028,-12557,-25157,-32788,38763,35754,84460,38683, 157853.200, 40.0105611,-105.2442138, 1695.495,1716.823, 187.749,225.791
1721677829.332297,-346,115,1060,-17841,-3982,-21657
1721677829.341688,-276,197,990,-21437,4900,-19627
1721677829.351079,-234,267,948,-22365,10325,-19697
1721677829.360470,-47,160,877,-19748,13545,-17667
1721677829.369861,-51,249,852,-15015,14008,-17798
1721677829.379252,-63,195,896,-9852,10491,-13852
1721677829.388643,-124,115,934,-2248,6142,-10273
1721677829.398071,-135,47,952,4883,1837,-6904,-32623,38848,35705,84469,38671
1721677829.407462,-64,-144,991,9643,-1199,-2993
1721677829.416853,-232,-47,981,10579,-3798,26
1721677829.426244,-221,-58,985,7385,-5504,3010
1721677829.435635,-337,8,980,3553,-4288,1662
1721677829.445026,-308,69,1015,-1478,-2267,306
1721677829.454417,-283,105,1035,-5521,1785,-683
1721677829.463808,-222,144,1004,-7883,5188,-140
1721677829.473205,-190,151,973,-8776,7647,3605,,,,84457,38667, 157853.300, 40.0105041,-105.2442183, 1681.694,1703.022, 157.699,190.527
1721677829.482596,-159,131,980,-8085,8627,8023
1721677829.491987,-205,54,1004,-6903,8496,11016
1721677829.501378,-235,35,1026,-6212,7805,11672
1721677829.510769,-188,85,1030,-7805,8006,8723
1721677829.520160,-221,168,1027,-10447,8505,8076
1721677829.529551,-259,204,1051,-12162,8566,8898
1721677829.538942,-223,233,1066,-12057,9047,7630
1721677829.548370,-198,169,1068,-10491,9922,5547,-32617,38989,35571,,, 157853.400, 40.0104686,-105.2442222, 1671.985,1693.313, 130.185,160.554
1721677829.557761,-184,158,1068,-8251,9861,4742
1721677829.567152,-185,181,1062,-6886,9038,3377
1721677829.576543,-129,122,1030,-6212,8102,3290
1721677829.585934,-119,73,996,-5608,7026,2870
1721677829.595325,-151,80,998,-6151,5250,2913
1721677829.604716,-163,170,992,-7831,3622,4182
1721677829.614107,-220,240,987,-9082,2773,6396
1721677829.623504,-210,276,1000,-8181,2782,6431,-32537,39215,35455,84469,38660, 157853.500, 40.0104035,-105.2442239, 1660.136,1681.464, 99.360,125.857
1721677829.632899,-229,219,1023,-5223,3456,4646
1721677829.642294,-141,135,1047,-1163,3902,2082
1721677829.651689,-190,79,1058,1759,3972,288
1721677829.661084,-240,71,1077,2468,2703,2476
1721677829.670479,-290,89,1068,1208,2283,3762
1721677829.679874,-304,37,1045,-1776,3701,3412
1721677829.689269,-157,-39,1041,-5950,6746,638
1721677829.698669,-215,123,1021,-39847,-342,1172,-32458,39776,34954,84459,38656
1721677829.708060,-174,229,989,-62842,-6887,6212
1721677829.717451,-147,259,989,-13685,11821,3815
1721677829.726842,-145,291,987,-12267,11515,3613
1721677829.736233,-218,280,967,-9240,9896,2695
1721677829.745624,-225,237,976,-5390,7787,875
1721677829.755015,-129,128,996,-2213,6877,-3194
1721677829.764406,-203,74,1034,-892,6098,-5889
1721677829.773803,-203,92,1049,-2318,4646,-4857,-32006,40417,34881,84468,38646, 157853.600, 40.0103796,-105.2442222, 1652.918,1674.246, 85.678,110.811
1721677829.783194,-238,193,1024,-5853,4287,-4568
1721677829.792585,-241,222,1008,-8968,4628,-2923
1721677829.801976,-102,238,983,-9948,5941,-5784
1721677829.811367,-89,181,971,-9852,6895,-9765
1721677829.820758,-69,216,962,-8933,5136,-7744
1721677829.830149,-125,269,968,-8391,2625,-4927
1721677829.839540,-253,310,992,-6746,166,-1260
1721677829.848937,-210,285,1007,-3543,-639,-1637,-31756,40618,34875,,, 157853.700, 40.0103488,-105.2442199, 1645.013,1666.341, 75.603,99.131
1721677829.858328,-162,224,1002,639,945,-4629
1721677829.867719,-160,173,1002,4620,2213,-5189
1721677829.877110,-174,130,1005,7272,2808,-3903
1721677829.886501,-184,175,1001,8348,3578,-2468
1721677829.895892,-174,166,992,8243,5153,-2092
1721677829.905283,-174,138,1001,8392,7175,-1943
1721677829.914674,-126,177,1014,8068,8863,-1619
1721677829.924102,-145,156,1036,7630,10150,-18,,,,84469,38637, 157853.800, 40.0103217,-105.2442154, 1638.908,1660.236, 67.474,89.615
1721677829.933493,-160,75,1051,8234,10307,2546
1721677829.942884,-219,-26,1040,9109,10220,4602
1721677829.952275,-113,0,1053,7665,10325,3272
1721677829.961666,-102,21,1038,4480,11558,2703
1721677829.971057,11,-44,1018,1453,11366,8067
1721677829.980448,-150,43,1035,-1137,10482,19678
1721677829.989839,-301,28,1065,-4042,8531,25978
1721677829.999237,-86,56,1069,-4996,10062,31255,-31787,39996,35406,84470,38633
1721677830.008628,-108,120,996,-5871,13545,37800
1721677830.018019,-13,168,929,-6553,14525,40250
1721677830.027410,-34,224,927,-5775,15006,37581
1721677830.036801,-153,223,957,-3272,13133,38001
1721677830.046192,-267,281,982,735,11025,35131
1721677830.055583,-312,226,1027,5128,10508,25593
1721677830.064974,-328,254,1079,9774,11165,15548
1721677830.074401,-243,116,1062,12933,12608,8137,-32287,39056,36169,84470,38624, 157853.900, 40.0103224,-105.2442138, 1636.455,1657.783, 62.470,83.073
1721677830.083792,-116,125,1026,15295,14043,3202
1721677830.093183,-187,272,979,15400,14236,10246
1721677830.102574,-286,366,921,15505,13387,19783
1721677830.111965,-207,307,908,18953,14542,22050
1721677830.121356,-127,91,933,24168,17482,17920
1721677830.130747,-122,11,976,27537,18445,16537
1721677830.140138,-212,101,996,25883,17701,19617
1721677830.149536,-406,142,1017,21779,17570,21490,-32122,37298,37878,,, 157854.000, 40.0103235,-105.2442094, 1635.515,1656.843, 57.248,77.234
1721677830.158927,-227,84,1056,18568,20160,20991
1721677830.168318,-143,139,1035,16083,25908,18296
1721677830.177709,-80,-22,1016,13292,29741,15356
1721677830.187100,68,24,981,11192,29951,17981
1721677830.196491,223,-2,942,7569,27116,17220
1721677830.205882,247,-16,917,4428,20623,15995
1721677830.215273,113,-24,989,814,10298,15312
1721677830.224670,-74,26,1065,-2441,-1173,16388,-32629,36712,37945,84465,38610, 157854.100, 40.0103443,-105.2442072, 1636.257,1657.585, 53.833,72.817
1721677830.234061,-220,84,1128,-5057,-10439,13151
1721677830.243452,-393,221,1177,-6816,-15278,10885
1721677830.252843,-422,308,1143,-7262,-14630,10990
1721677830.262234,-317,379,1037,-5092,-9310,11357
1721677830.271625,-197,342,934,-525,-1934,12267
1721677830.281016,-203,322,923,5163,3832,12433
1721677830.290407,-227,300,945,9958,7358,12722
1721677830.299865,-225,214,964,13537,10421,11628,-32336,36010,38842,84466,38604
1721677830.309256,-193,137,989,15689,13667,9555
1721677830.318647,-181,48,1019,15549,16607,7105
1721677830.328038,-58,0,1032,13125,18550,5075
1721677830.337429,2,15,1025,9057,19258,3526
1721677830.346820,95,44,1003,4305,17185,4200
1721677830.356211,109,78,991,245,12591,4768
1721677830.365602,49,78,1009,-2502,5565,6090
1721677830.374999,-1,47,1026,-4558,-2030,6483,,,,84466,38592, 157854.200, 40.0103080,-105.2441983, 1628.314,1649.642, 47.267,62.471
1721677830.384390,-63,46,1037,-7017,-8252,5661
1721677830.393781,-174,81,1072,-10858,-12355,4278
1721677830.403172,-205,140,1069,-15505,-14053,2458
1721677830.412563,-213,181,1051,-19521,-12854,-263
1721677830.421954,-209,275,1004,-22015,-10360,-1252
1721677830.431345,-132,266,985,-22303,-7342,-517
1721677830.440736,-75,259,942,-19993,-4673,-1094
1721677830.450164,-114,191,974,-17106,-3448,-2057,-32763,36462,37805,,, 157854.300, 40.0102981,-105.2441950, 1624.401,1645.729, 42.264,54.963
1721677830.459555,-236,108,1046,-15531,-3859,-4008
1721677830.468946,-156,12,980,-15680,-3623,-5635
1721677830.478337,-83,-62,1107,-20755,-3562,-7114
1721677830.487728,86,-101,1028,-29776,-5163,-5863
1721677830.497119,150,-72,955,-23677,5442,-3212
1721677830.506510,157,73,951,-29627,1408,-4402
1721677830.515901,-1,143,1036,-34177,-3815,-6353
1721677830.525299,-114,170,1131,-35280,-9564,-5180,-32824,38006,36340,84472,38588, 157854.400, 40.0103115,-105.2441968, 1624.515,1645.843, 39.067,50.142
1721677830.534694,-169,226,1164,-34676,-13003,-4165
1721677830.544089,-224,297,1127,-33748,-14368,-4717
1721677830.553484,-197,316,1080,-31421,-14298,-6738
1721677830.562879,-164,342,1033,-27072,-13152,-7744
1721677830.572274,-183,361,984,-21376,-12207,-5565
1721677830.581669,-156,354,1012,-14761,-11262,-4332
1721677830.591064,-205,375,875,-7971,-11725,-5907
1721677830.600463,-183,292,973,-4375,-12618,-9275,-32659,38818,35540,84469,38583
1721677830.609854,-182,180,1007,3308,-3772,-12259
1721677830.619245,-192,144,1024,5679,-1068,-15015
1721677830.628636,-154,131,1012,4647,1618,-18078
1721677830.638027,-113,121,997,2547,4208,-17964
1721677830.647418,-55,162,991,525,5880,-14027
1721677830.656809,-34,202,984,-971,6256,-8969
1721677830.666200,-60,270,996,-1120,5232,-5487
1721677830.675598,-110,269,1056,-70,3150,-4655,-32446,38977,35803,84470,38581, 157854.500, 40.0103259,-105.2441969, 1624.437,1645.765, 36.707,47.022
1721677830.684989,-91,283,1093,2302,927,-5662
1721677830.694380,-240,335,943,4725,-972,-7797
1721677830.703771,-439,485,823,7245,-3212,-9004
1721677830.713162,-293,435,994,8182,-17780,-7937
1721677830.722553,-260,363,1009,21324,-3535,-6029
1721677830.731944,-217,244,997,26180,10115,-1304
1721677830.741335,-96,93,979,30118,16038,1347
1721677830.750732,27,-1,943,30363,20781,2765,-32031,39178,36022,84461,38565, 157854.600, 40.0103385,-105.2441960, 1624.372,1645.700, 34.528,44.439
1721677830.760123,189,-100,933,25953,22890,472
1721677830.769514,256,-170,958,18944,21026,-3352
1721677830.778905,249,-176,1020,9713,14638,-7114
1721677830.788296,195,-133,1085,-682,5031,-8812
1721677830.797687,110,-55,1120,-11051,-6003,-10675
1721677830.807078,27,72,1113,-19705,-16905,-12364
1721677830.816469,-80,218,1068,-25200,-26303,-13239
1721677830.825897,-325,445,1010,-26591,-33583,-12819,,,,,, 157854.700, 40.0103316,-105.2441915, 1622.506,1643.834, 32.853,42.439
1721677830.835292,-347,487,959,-23493,-37144,-11428
1721677830.844687,-329,473,962,-15645,-34712,-8304
1721677830.854082,-390,410,983,-6825,-29645,-6825
1721677830.863477,-505,357,995,578,-23030,-6904
1721677830.872872,-425,274,970,5723,-14167,-6572
1721677830.882267,-258,233,929,8715,-2844,-6292
1721677830.891662,-163,201,900,9424,7393,-5102
1721677830.901061,-86,219,859,8794,14078,-4874,-32238,39642,35394,84463,38563
1721677830.910456,-17,229,850,8357,17876,-3054
1721677830.919851,64,223,865,9057,18733,-1418
1721677830.929246,-11,225,923,10745,16738,-1759
1721677830.938641,-57,180,995,12723,12127,-3457
1721677830.948036,-104,146,1059,14805,7735,-4017
1721677830.957431,-123,105,1100,15637,3955,-4218
1721677830.966826,-104,98,1092,14919,1251,-3815
1721677830.976226,-70,101,1061,12627,-849,-4130,-31921,39379,35900,84468,38556, 157854.800, 40.0103321,-105.2441900, 1621.494,1642.822, 31.619,40.865
1721677830.985621,-89,127,1030,9774,-2888,-3780
1721677830.995016,-74,120,1014,6747,-4909,-2669
1721677831.004411,-184,184,1034,4139,-6055,-1085
1721677831.013806,-790,641,1199,1899,-6405,-797
1721677831.023201,-1233,936,1329,2144,-2835,1181
1721677831.032596,-285,741,1232,27029,16625,17692
1721677831.041991,-415,727,1045,45982,41641,22531
1721677831.051361,-248,577,1003,62405,59071,23213,-30218,36468,40502,84465,38543, 157854.900, 40.0103315,-105.2441883, 1620.633,1641.961, 30.520,39.480
1721677831.060756,-95,364,992,78208,70428,16108
1721677831.070151,61,195,970,90642,76020,12075
1721677831.079546,286,-39,928,97458,76965,10272
1721677831.088941,379,-240,933,98770,73561,6037
1721677831.098336,416,-359,965,94037,65432,4628
1721677831.107731,398,-456,1003,83922,54722,4690
1721677831.117126,375,-462,1003,69852,42778,4655
1721677831.126647,363,-429,985,53323,30590,3526,-29443,34881,42248,,, 157855.000, 40.0103210,-105.2441841, 1618.762,1640.090, 29.409,38.143
1721677831.136042,303,-366,963,36654,18690,1671
1721677831.145437,189,-253,943,21429,7192,210
1721677831.154832,92,-169,924,8654,-2704,-1838
1721677831.164227,27,-83,921,-892,-9914,-4375
1721677831.173622,-36,-20,942,-7638,-14552,-6117
1721677831.183017,-133,37,966,-11707,-17037,-5548
1721677831.192412,-203,108,992,-13790,-17404,-5539
1721677831.201660,-248,157,1007,-14087,-15523,-5548,-29058,34997,42572,84465,38534
1721677831.211051,-258,204,1015,-12285,-11865,-5215
1721677831.220442,-268,248,1021,-8855,-7044,-5180
1721677831.229833,-264,275,1026,-3937,-1707,-5259
1721677831.239224,-225,283,1024,2144,4060,-5487
1721677831.248615,-183,254,1023,8960,9870,-4962
1721677831.258006,-140,187,1028,15680,15015,-4498
1721677831.267397,-100,128,1047,21525,19320,-4253
1721677831.276794,-30,51,1075,25769,22750,-2520,,,,84467,38531, 157855.100, 40.0103136,-105.2441812, 1617.326,1638.654, 28.414,36.910
1721677831.286185,20,-28,1092,28263,25086,831
1721677831.295576,59,-62,1097,28683,25926,5057
1721677831.304967,88,-79,1098,26627,25375,7813
1721677831.314358,106,-57,1080,23258,23590,8872
1721677831.323749,142,-31,1058,19154,20623,8321
1721677831.333140,186,-40,1038,15610,16633,6475
1721677831.342531,186,-40,1028,12688,11392,5188
1721677831.351959,192,-46,1031,9704,5215,4453,-28240,33654,44055,84469,38529, 157855.200, 40.0103039,-105.2441782, 1615.681,1637.009, 27.547,35.715
1721677831.361354,162,-63,1052,6580,-998,3508
1721677831.370749,100,-59,1075,3072,-6834,3290
1721677831.380144,53,7,1072,-1023,-11603,3613
1721677831.389539,-113,32,1051,-5302,-14639,2406
1721677831.398934,-64,58,1045,-8120,-16048,-254
1721677831.408329,-88,105,1030,-10053,-14359,962
1721677831.417724,-72,94,1004,-10937,-12530,1846
1721677831.427185,-113,163,952,-10202,-10194,2800,-28717,33593,43603,,, 157855.300, 40.0102942,-105.2441749, 1613.782,1635.110, 26.715,34.523
1721677831.436576,-189,185,928,-9100,-8033,5040
1721677831.445967,-67,65,971,-6431,-4550,7831
1721677831.455358,-33,-35,989,-3727,-202,7498
1721677831.464749,44,-91,1007,-3911,2047,6221
1721677831.474140,121,-99,1041,-6098,2791,4838
1721677831.483531,60,-59,1073,-9012,1260,2835
1721677831.492922,46,-37,1086,-11515,-2074,831
1721677831.502227,158,-7,1088,-12460,-4367,3342,-29217,33715,43225,84463,38520
1721677831.511622,115,-9,1064,-12740,-5959,7813
1721677831.521017,-7,52,1056,-12118,-9109,11681
1721677831.530412,-43,108,1038,-11585,-11480,15487
1721677831.539807,-36,82,1001,-9957,-11524,18112
1721677831.549202,-10,32,972,-8058,-10247,17666
1721677831.558597,-50,46,955,-7507,-8943,14638
1721677831.567992,-4,17,966,-8452,-7867,10928
1721677831.577453,-101,65,1009,-9546,-6440,7560,-29431,33184,43151,84472,38516, 157855.400, 40.0102776,-105.2441712, 1610.885,1632.214, 25.673,33.019
1721677831.586848,-159,117,1062,-10885,-5627,6851
1721677831.596243,-217,192,1090,-11173,-3264,8496
1721677831.605638,-288,310,1161,-9782,717,10867
1721677831.615033,-157,245,1180,-5565,6650,14787
1721677831.624428,-123,258,1119,1593,13667,16633
1721677831.633823,-152,318,1065,8759,18226,19206
1721677831.643218,-30,217,1139,15777,21980,20037
1721677831.652587,363,-35,1052,23625,25208,18602,,,,84462,38507, 157855.500, 40.0102629,-105.2441679, 1608.092,1629.420, 24.839,31.731
1721677831.661982,212,-89,992,27852,24683,16231
1721677831.671377,194,-83,1076,25507,17570,13562
1721677831.680772,211,-163,1122,21175,10298,12591
1721677831.690167,297,-217,1093,16162,4121,11147
1721677831.699562,288,-144,1044,9022,-2687,9677
1721677831.708957,213,-118,1041,972,-10632,9196
1721677831.718352,149,-94,1055,-5731,-18305,9318
1721677831.727752,86,-36,1060,-11532,-24369,10027,-29644,32012,43890,,, 157855.600, 40.0102523,-105.2441656, 1605.537,1626.865, 24.031,30.595
1721677831.737143,-7,8,1047,-16415,-28779,10762
1721677831.746534,-76,40,1041,-19538,-31317,9861
1721677831.755925,-116,72,1038,-21350,-31667,8041
1721677831.765316,-152,90,1036,-21883,-30293,6877
1721677831.774707,-165,102,1040,-21367,-27747,6387
1721677831.784098,-150,105,1037,-20011,-24290,6020
1721677831.793489,-110,101,1035,-17911,-20467,6300
1721677831.802886,-97,107,1036,-15233,-16897,7402,-31042,32336,42224,84466,38504
1721677831.812281,-93,105,1033,-12250,-14088,7743
1721677831.821676,-90,114,1025,-9187,-11533,7183
1721677831.831071,-97,125,1024,-5801,-9232,6947
1721677831.840466,-84,113,1027,-2100,-6922,7113
1721677831.849861,-56,90,1025,1584,-4472,8391
1721677831.859256,-2,86,1021,5032,-2354,11453
1721677831.868651,27,69,1025,8042,-954,15251
1721677831.878051,16,49,1044,10807,-700,18900,-31762,31042,42468,84460,38493, 157855.700, 40.0102410,-105.2441630, 1603.185,1624.513, 23.284,29.537
1721677831.887442,1,28,1056,12688,-1357,22540
1721677831.896833,-41,15,1059,13467,-2135,24885
1721677831.906224,-55,25,1055,13204,-2853,26022
1721677831.915615,-68,46,1041,12382,-3054,27177
1721677831.925006,-72,51,1027,11507,-2905,27965
1721677831.934397,-58,54,1013,10605,-2389,28218
1721677831.943788,-50,66,1004,9494,-1777,28428
1721677831.953185,-33,85,1001,8173,-1365,27798,-32531,29211,42547,84463,38486, 157855.800, 40.0102281,-105.2441612, 1601.091,1622.419, 22.611,28.603
1721677831.962576,-13,72,1021,6808,-1313,25996
1721677831.971967,-10,39,1055,5740,-1759,23581
1721677831.981358,-31,30,1082,4454,-3045,22163
1721677831.990749,-85,42,1099,2564,-4717,22041
1721677832.000140,-176,94,1103,595,-6134,22452
1721677832.009531,-264,176,1073,-883,-6388,23108
1721677832.018922,-264,247,1008,-1015,-4734,23231
1721677832.028320,-73,90,1032,1208,-1024,20790,-33593,27612,42474,,, 157855.900, 40.0102166,-105.2441589, 1599.440,1620.768, 21.864,27.643
1721677832.037711,73,13,1001,4778,2625,19092
1721677832.047102,193,-56,986,6003,2738,20991
1721677832.056493,110,-38,987,5950,-473,24561
1721677832.065884,94,-55,993,5303,-6257,29680
1721677832.075275,16,-43,1023,5067,-11200,31692
1721677832.084666,-14,-63,1048,4813,-15488,32558
1721677832.094057,-46,-110,1072,4550,-17973,34090
1721677832.103485,-24,-116,1091,3570,-19329,36286,,,,84460,38475
1721677832.112876,-82,-40,1086,1383,-19915,39830
1721677832.122267,-103,-107,1079,-1058,-20265,43268
1721677832.131658,-126,-4,1061,-2870,-19408,44738
1721677832.141049,-111,26,1043,-5083,-18113,44441
1721677832.150440,-92,11,1030,-5617,-16485,41728
1721677832.159831,-128,52,1031,-5451,-15225,39243
1721677832.169222,-87,-8,1038,-5293,-14184,38228
1721677832.178619,-86,30,1046,-4961,-12705,36898,-35406,25274,41558,84460,38473, 157856.000, 40.0102093,-105.2441578, 1598.258,1619.586, 21.148,26.701
1721677832.188010,-96,42,1043,-5696,-11673,37003
1721677832.197401,32,-8,1033,-6055,-10710,35988
1721677832.206792,-52,-54,1026,-6160,-9967,34982
1721677832.216183,-315,152,949,-7288,-11034,35315
1721677832.225574,72,51,967,-8776,-10938,29697
1721677832.234965,-35,-61,958,-6597,-6965,22890
1721677832.244356,-35,-57,999,-5258,-7797,27378
1721677832.253784,-196,10,1028,-6912,-8339,28210,-36529,23614,40948,84461,38466, 157856.100, 40.0102048,-105.2441561, 1597.549,1618.877, 20.538,25.917
1721677832.263175,-255,73,1061,-9292,-8190,27098
1721677832.272566,-174,25,1077,-11182,-5522,23765
1721677832.281957,9,-116,1054,-12337,-1138,20667
1721677832.291348,45,-85,1040,-15172,1610,20921
1721677832.300739,-29,-17,1015,-20606,1137,22137
1721677832.310130,-98,55,1004,-24823,-525,22435
1721677832.319521,-110,95,1011,-26425,-1505,23152
1721677832.328918,-52,80,1016,-24876,-1680,23957,-37084,22772,40594,,, 157856.200, 40.0102087,-105.2441555, 1597.280,1618.608, 19.986,25.179
1721677832.338309,-59,53,1005,-21280,-1847,24718
1721677832.347700,-104,43,1004,-17430,-2809,25340
1721677832.357091,-144,34,1027,-14157,-3518,24552
1721677832.366482,-142,3,1054,-11733,-3133,22802
1721677832.375873,-154,-10,1072,-10158,-1707,20466
1721677832.385264,-157,12,1085,-9765,113,18523
1721677832.394655,-97,18,1109,-9861,2126,16765
1721677832.404052,-83,40,1115,-9371,3998,16196,-37451,21484,40435,84467,38457
1721677832.413443,-42,74,1102,-8023,4278,18191
1721677832.422834,60,63,1060,-5731,3718,18357
1721677832.432225,-56,46,1040,-2660,1872,19407
1721677832.441616,-53,34,1035,-61,-1777,19862
1721677832.451007,-85,-21,1049,1322,-3684,14700
1721677832.460398,-136,-33,1068,1234,-4988,8592
1721677832.469789,-94,-19,1061,-787,-4988,2878
1721677832.479217,-76,4,1034,-3482,-3710,-350,-37646,21630,40161,84467,38455, 157856.300, 40.0102145,-105.2441536, 1597.369,1618.698, 19.423,24.423
1721677832.488608,-14,1,1001,-6142,-2459,-2284
1721677832.497999,1,13,955,-8531,-1689,-3072
1721677832.507390,0,18,912,-10701,-2214,-3308
1721677832.516781,-48,27,915,-12512,-3509,-3947
1721677832.526172,-117,21,982,-14113,-4909,-5075
1721677832.535563,-194,-15,1049,-15452,-5425,-5854
1721677832.544954,-160,-31,1076,-16528,-4428,-5793
1721677832.554351,-116,3,1062,-17771,-1847,-4052,,,,84470,38448, 157856.400, 40.0102201,-105.2441526, 1597.356,1618.684, 18.929,23.769
1721677832.563742,-103,50,1027,-18672,297,-385
1721677832.573133,-140,100,995,-18191,1373,2948
1721677832.582524,-60,40,1051,-16003,1793,4445
1721677832.591915,88,-228,1127,-12810,2213,2458
1721677832.601306,-156,-19,1036,-13168,297,4270
1721677832.610697,-209,274,1176,-15566,-3098,4602
1721677832.620088,-89,70,1058,17255,-622,-20327
1721677832.629516,-247,209,1118,-19066,-1050,-14595,-37695,21972,39996,,, 157856.500, 40.0102182,-105.2441505, 1596.797,1618.125, 18.614,23.381
1721677832.638907,-48,219,1175,-16275,603,-15969
1721677832.648298,-240,299,1184,-11191,4051,-12837
1721677832.657689,-358,333,1236,-5223,5285,-8112
1721677832.667080,-324,356,1221,1602,9817,-6195
1721677832.676471,-287,299,1185,9109,16878,-7298
1721677832.685862,-128,151,1133,16267,23765,-9389
1721677832.695253,-18,81,1089,22400,29400,-13764
1721677832.704650,53,67,1047,26110,31981,-15847,-36535,21472,41394,84474,38448
1721677832.714041,62,44,1016,28280,31718,-15322
1721677832.723432,76,25,988,29855,29610,-15155
1721677832.732823,5,-31,963,30485,26547,-14683
1721677832.742214,-7,-87,988,30013,23152,-14919
1721677832.751605,-21,-76,990,27554,21061,-16687
1721677832.760996,-58,-70,989,23582,19661,-14700
1721677832.770387,-48,-72,992,19513,19092,-13283
1721677832.779785,4,-52,993,15497,19442,-12985,-35235,20922,42797,84467,38443, 157856.600, 40.0102150,-105.2441482, 1596.000,1617.329, 18.345,23.053
1721677832.789176,-87,-77,989,11804,19521,-10789
1721677832.798567,-84,-40,988,8960,19040,-9564
1721677832.807958,-56,-49,980,6292,19337,-12145
1721677832.817349,-72,-80,979,4244,19153,-15400
1721677832.826740,-40,-80,982,2284,17998,-17929
1721677832.836131,-20,-74,979,333,16651,-19775
1721677832.845522,-5,-81,968,-1233,14691,-20545
1721677832.854980,-10,-75,973,-2415,12250,-21149,-34564,21728,43286,84460,38439, 157856.700, 40.0102104,-105.2441460, 1595.153,1616.481, 18.091,22.724
1721677832.864371,-42,-78,995,-3360,9528,-21280
1721677832.873762,-34,-80,1020,-3885,7175,-20668
1721677832.883153,-3,-101,1028,-4086,5503,-19863
1721677832.892544,19,-134,1026,-4182,3876,-19172
1721677832.901935,24,-123,1019,-5005,1828,-17903
1721677832.911326,25,-105,1003,-6772,-499,-15497
1721677832.920717,9,-73,986,-8916,-2660,-14980
1721677832.930114,-16,-45,987,-10972,-4620,-16057,-34637,22686,42858,,, 157856.800, 40.0102047,-105.2441441, 1594.292,1615.620, 17.825,22.396
1721677832.939505,-34,-13,1000,-12416,-6134,-17535
1721677832.948896,-63,13,1015,-12923,-7035,-18445
1721677832.958287,-57,30,1025,-12110,-7280,-18927
1721677832.967678,-60,23,1033,-10062,-7000,-19005
1721677832.977069,-63,39,1027,-7218,-6598,-17947
1721677832.986460,-55,58,1013,-4243,-6327,-16275
1721677832.995851,-64,72,997,-1233,-6195,-14919
1721677833.005279,-105,74,1000,1724,-6475,-12705,,,,84466,38425
1721677833.014670,-148,87,1021,4349,-6843,-10973
1721677833.024061,-139,107,1048,6668,-6510,-11507
1721677833.033452,-121,113,1074,8952,-5277,-13983
1721677833.042843,-129,105,1101,11620,-4034,-16162
1721677833.052234,-142,104,1127,14490,-3089,-16678
1721677833.061625,-166,85,1147,17325,-2065,-17605
1721677833.071016,-180,69,1163,20055,-552,-19102
1721677833.080413,-140,61,1170,22339,1295,-20948,-34594,22717,43072,84468,38428, 157856.900, 40.0101981,-105.2441420, 1593.313,1614.641, 17.576,22.076
1721677833.089808,-121,57,1158,23932,3167,-22147
1721677833.099203,-130,48,1134,24938,4436,-22094
1721677833.108598,-119,62,1120,25314,5258,-21683
1721677833.117993,-112,57,1130,25087,6151,-23442
1721677833.127388,-64,16,1131,25078,7175,-29908
1721677833.136783,-9,-3,1138,25340,8321,-37310
1721677833.146178,25,-44,1150,25507,8802,-42770
1721677833.155578,28,-62,1162,25699,8601,-45387,-33605,22882,43933,84468,38419, 157857.000, 40.0101935,-105.2441408, 1592.885,1614.213, 17.328,21.805
1721677833.164969,38,-90,1170,25682,8050,-45658
1721677833.174360,52,-114,1170,25384,7743,-44302
1721677833.183751,40,-127,1165,24439,7253,-42263
1721677833.193142,44,-122,1162,22873,6737,-40180
1721677833.202533,70,-136,1152,20782,6623,-40049
1721677833.211924,104,-143,1149,18349,6466,-41808
1721677833.221315,133,-161,1153,15750,5853,-44512
1721677833.230712,150,-159,1150,12802,4698,-47985,-32446,24468,44281,,, 157857.100, 40.0101910,-105.2441400, 1592.491,1613.819, 17.062,21.522
1721677833.240103,109,-155,1145,9529,2887,-50663
1721677833.249494,79,-156,1147,6125,1172,-52255
1721677833.258885,43,-131,1144,2687,8,-52973
1721677833.268276,-1,-140,1138,-656,-482,-53734
1721677833.277667,-5,-132,1139,-3666,-272,-54338
1721677833.287058,20,-145,1131,-6545,822,-54600
1721677833.296449,82,-140,1118,-9196,2143,-54513
1721677833.305847,106,-146,1093,-11908,2940,-52947,-31213,27508,44238,84471,38419
1721677833.315238,160,-91,1070,-14586,2572,-50654
1721677833.324629,152,-42,1055,-17097,1531,-44153
1721677833.334020,102,-13,1033,-19162,-438,-43995
1721677833.343411,75,0,1005,-20361,-2214,-45982
1721677833.352802,49,20,982,-21122,-2940,-48484
1721677833.362193,8,16,966,-21691,-3142,-49910
1721677833.371584,43,29,956,-21945,-2809,-49587
1721677833.381011,92,50,940,-21918,-1759,-48292,,,,84462,38416, 157857.200, 40.0101920,-105.2441403, 1592.236,1613.564, 16.693,20.995
1721677833.390402,139,45,920,-21446,-1112,-48292
1721677833.399793,152,33,910,-20256,-1278,-48152
1721677833.409184,141,29,909,-18987,-2293,-45527
1721677833.418575,98,42,912,-17780,-3553,-39498
1721677833.427966,54,62,917,-16310,-4340,-32577
1721677833.437357,7,86,917,-14525,-4069,-26732
1721677833.446748,-58,83,912,-12468,-2827,-22357
1721677833.456146,-119,81,923,-10071,-560,-19828,-30218,29931,43756,84466,38405, 157857.300, 40.0101923,-105.2441402, 1592.163,1613.491, 16.277,20.385
1721677833.465537,-107,104,940,-7831,2922,-18655
1721677833.474928,-54,118,949,-5521,7236,-17850
1721677833.484319,14,116,953,-2843,10963,-17947
1721677833.493710,61,94,958,97,13352,-18227
1721677833.503101,106,87,965,2949,14078,-16328
1721677833.512492,122,95,971,5478,13483,-10982
1721677833.521883,122,92,966,7700,11996,-4227
1721677833.531341,110,83,951,9809,10220,857,-29199,30297,44433,,, 157857.400, 40.0101880,-105.2441397, 1591.548,1612.876, 15.865,19.798
1721677833.540732,89,64,938,11594,8478,4060
1721677833.550123,74,59,938,12863,7175,6991
1721677833.559514,71,55,939,13292,6387,9476
1721677833.568905,62,47,942,13379,6081,11112
1721677833.578296,65,31,944,13169,6028,13055
1721677833.587687,70,20,941,12723,6422,15382
1721677833.597078,87,22,932,11769,6947,17885
1721677833.606475,87,26,910,10325,7612,20308,-29022,28894,45129,84467,38400
1721677833.615866,59,9,894,8680,8015,22995
1721677833.625257,72,18,884,6747,8583,25908
1721677833.634648,103,19,867,4358,9511,29155
1721677833.644039,140,17,847,1960,10342,31193
1721677833.653430,170,24,843,-358,10465,32970
1721677833.662821,222,20,834,-2983,9712,34868
1721677833.672212,223,29,834,-5285,8041,37782
1721677833.681610,197,78,834,-7446,5267,41518,-29809,27502,45275,84459,38400, 157857.500, 40.0101829,-105.2441393, 1590.803,1612.131, 15.458,19.221
1721677833.691001,132,107,850,-9135,2065,43828
1721677833.700392,97,145,874,-9712,-657,44135
1721677833.709783,94,144,906,-9187,-2415,42507
1721677833.719174,130,103,945,-7866,-3640,39217
1721677833.728565,165,98,980,-6545,-5189,36496
1721677833.737956,179,111,1007,-5888,-7805,35551
1721677833.747347,152,85,1041,-5145,-11620,35253
1721677833.756774,92,78,1093,-4322,-16057,33757,-31628,26361,44165,84462,38394, 157857.600, 40.0101752,-105.2441375, 1589.747,1611.075, 14.996,18.589
1721677833.766165,38,81,1144,-3718,-20178,31517
1721677833.775556,10,68,1193,-3193,-23310,28875
1721677833.784947,0,63,1233,-2625,-25542,24753
1721677833.794338,17,51,1261,-2187,-27222,20335
1721677833.803729,23,45,1271,-2117,-28508,16703
1721677833.813120,16,41,1287,-2668,-29925,14026
1721677833.822511,-14,55,1309,-3928,-31238,12101
1721677833.831909,-66,98,1322,-5565,-32017,10578,,,,,, 157857.700, 40.0101723,-105.2441366, 1589.389,1610.717, 14.587,18.021
1721677833.841300,-115,127,1328,-7140,-31920,7927
1721677833.850691,-143,137,1331,-8268,-30477,3018
1721677833.860082,-134,149,1326,-9231,-27852,-3378
1721677833.869473,-98,162,1304,-10062,-24562,-9958
1721677833.878864,-42,170,1268,-10718,-21210,-16468
1721677833.888255,-8,160,1235,-11226,-18340,-22593
1721677833.897646,29,173,1208,-11663,-16424,-27939
1721677833.907073,66,199,1185,-11917,-15313,-31649,-32659,27368,42938,84467,38389
1721677833.916464,79,211,1165,-11646,-15042,-34370
1721677833.925855,91,229,1147,-10430,-15593,-36138
1721677833.935246,103,233,1124,-8365,-16634,-37065
1721677833.944637,105,223,1104,-5722,-18017,-37442
1721677833.954028,80,198,1084,-2747,-19758,-36602
1721677833.963419,20,177,1086,245,-21595,-35070
1721677833.972810,-12,150,1086,2757,-22759,-32664
1721677833.982208,-48,127,1083,4769,-22733,-31028,-32781,28887,42028,84462,38387, 157857.800, 40.0101679,-105.2441356, 1589.068,1610.396, 14.218,17.512
1721677833.991599,-47,102,1065,6169,-21657,-31177
1721677834.000990,-94,94,1059,6817,-19688,-30695
1721677834.010381,-114,89,1044,6703,-17352,-30232
1721677834.019772,-143,89,1033,6169,-14097,-30188
1721677834.029163,-139,85,1028,5189,-10299,-31080
1721677834.038554,-129,105,1019,4165,-5942,-32104
1721677834.047945,-121,97,1010,3150,-1855,-33819
1721677834.057342,-96,94,1006,2433,1758,-35315,-31921,30438,42205,84466,38382, 157857.900, 40.0101648,-105.2441347, 1588.873,1610.201, 13.874,17.045
1721677834.066733,-58,93,994,1672,5040,-35762
1721677834.076124,-62,74,979,1059,7446,-36015
1721677834.085515,-27,71,965,534,9021,-35097
1721677834.094906,12,69,955,-253,10403,-32979
1721677834.104297,38,57,946,-927,11086,-31115
1721677834.113688,53,49,932,-1592,11138,-29024
1721677834.123079,59,44,913,-2231,10605,-26320
1721677834.132507,51,37,900,-2695,10053,-23468,-30694,31359,42651,,, 157858.000, 40.0101650,-105.2441346, 1588.972,1610.300, 13.591,16.631
1721677834.141898,36,46,897,-3141,9441,-20755
1721677834.151289,10,48,906,-3465,9108,-18270
1721677834.160680,-18,44,922,-3333,9292,-16538
1721677834.170071,-7,31,928,-2905,9957,-15820
1721677834.179462,27,13,932,-2275,11121,-15987
1721677834.188853,66,6,923,-1907,12005,-16800
1721677834.198244,97,15,924,-1942,11987,-16625
1721677834.207641,118,35,939,-1995,10981,-15085,-30029,31854,42974,84462,38371
1721677834.217032,94,53,958,-1986,9100,-13099
1721677834.226423,73,53,984,-1487,6790,-11524
1721677834.235814,64,49,1017,-463,4663,-10850
1721677834.245205,71,59,1045,604,2887,-11052
1721677834.254596,89,36,1062,1943,1225,-10850
1721677834.263987,101,36,1070,3343,-482,-10028
1721677834.273378,89,22,1079,4297,-2608,-9092
1721677834.282806,70,3,1102,4848,-4935,-8164,,,,84464,38373, 157858.100, 40.0101683,-105.2441344, 1589.366,1610.694, 13.316,16.221
1721677834.292197,55,-1,1134,4830,-7193,-6738
1721677834.301588,53,-9,1163,4340,-9197,-5565
1721677834.310979,46,-7,1179,3492,-11052,-4445
1721677834.320370,31,-2,1182,2468,-13003,-3605
1721677834.329761,15,12,1177,1190,-14919,-3439
1721677834.339152,-15,41,1163,-140,-16512,-4209
1721677834.348543,-67,49,1149,-1260,-17640,-6939
1721677834.357940,-92,55,1144,-1995,-18113,-11752,-30450,31970,42443,84463,38367, 157858.200, 40.0101716,-105.2441335, 1589.761,1611.089, 13.045,15.821
1721677834.367331,-78,45,1140,-2537,-17667,-17938
1721677834.376722,-61,16,1130,-2730,-16477,-23678
1721677834.386113,-36,-5,1115,-2782,-15190,-27405
1721677834.395504,-17,-11,1093,-3027,-13930,-28219
1721677834.404895,-20,-1,1065,-3325,-12574,-26460
1721677834.414286,-42,0,1036,-3377,-11174,-22995
1721677834.423677,-67,1,1010,-3088,-9442,-18979
1721677834.433074,-81,18,983,-2528,-6904,-15094,-30261,32763,42144
1721677834.442465,-90,12,957,-1627,-3754,-11174
1721677834.451856,-113,0,939,-87,-219,-7473
1721677834.461247,-125,-17,931,1724,3456,-4165
1721677834.470638,-122,-16,934,3693,7376,-438
1721677834.480029,-152,-51,938,5732,11418,3237
1721677834.489420,-137,-67,944,7840,15303,7096
1721677834.498811,-98,-43,941,9538,19398,11585
1721677834.508239,-67,-22,937,10947,22846,15452,-29461,31591,43463,84464,38360, 157858.300, 40.0101731,-105.2441321, 1590.053,1611.381, 12.772,15.427
1721677834.517630,-50,-35,946,12618,25051,19136
1721677834.527021,-82,-51,975,14228,26241,22268
1721677834.536412,-57,-57,1007,15357,26678,24071
1721677834.545803,-18,-67,1023,15987,26941,25786
1721677834.555194,0,-11,1057,16083,26363,25348
1721677834.564585,30,-39,1070,15750,25165,24893
1721677834.573976,20,-25,1078,16030,23493,25515
1721677834.583373,-4,-6,1071,15847,21192,25795,-29217,29174,44854,84459,38360, 157858.400, 40.0101740,-105.2441307, 1590.210,1611.538, 12.525,15.089
1721677834.592764,0,-5,1067,15890,19022,27387
1721677834.602155,34,-5,1063,16494,17482,29750
1721677834.611546,34,7,1074,17509,16117,34090
1721677834.620937,28,9,1086,19110,14542,39138
1721677834.630328,-4,11,1097,21342,13291,42708
1721677834.639719,-9,-23,1095,23949,12678,43802
1721677834.649110,-43,-32,1083,26364,12818,43190
1721677834.658538,-43,-61,1066,28167,13265,42253,-29022,26190,46356,84464,38351, 157858.500, 40.0101727,-105.2441288, 1590.127,1611.455, 12.266,14.746
1721677834.667929,-27,-81,1053,29444,14271,41203
1721677834.677320,-20,-106,1042,29838,15233,39226
1721677834.686711,-13,-143,1028,29505,15942,37038
1721677834.696102,-10,-169,1020,28455,16502,34028
1721677834.705493,18,-176,1022,26653,16765,30555
1721677834.714884,55,-198,1022,24378,17036,26871
1721677834.724275,80,-210,1019,21972,16878,23003
1721677834.733673,89,-224,1011,19303,15977,21052,,,,,, 157858.600, 40.0101697,-105.2441266, 1589.784,1611.112, 12.040,14.481
1721677834.743068,80,-229,1012,16442,14560,21262
1721677834.752463,64,-225,1014,13572,13081,22478
1721677834.761858,52,-226,1012,10693,11681,23178
1721677834.771253,41,-230,1009,8234,10307,23633
1721677834.780648,38,-233,1004,5854,9213,23353
1721677834.790043,58,-228,1000,3509,8163,22820
1721677834.799438,72,-213,994,1243,7183,21043
1721677834.808868,102,-184,981,-761,5757,19302,-28729,24749,47137,84457,38349
1721677834.818263,143,-172,972,-2362,3946,17718
1721677834.827658,174,-168,973,-3412,1522,16108
1721677834.837053,195,-165,982,-4173,-1567,14918
1721677834.846448,188,-151,990,-4847,-5557,15706
1721677834.855843,152,-151,1008,-5407,-9818,18191
1721677834.865238,117,-149,1021,-6133,-13930,19888
1721677834.874633,62,-104,1043,-7052,-17247,21385
1721677834.884033,10,-85,1060,-8233,-19828,21280,-29833,24230,46600,84468,38349, 157858.700, 40.0101688,-105.2441252, 1589.650,1610.978, 11.830,14.232
1721677834.893428,-39,-88,1086,-8977,-21210,18480
1721677834.902823,-57,-134,1126,-9695,-21333,13282
1721677834.912218,-30,-178,1176,-10648,-20502,7612
1721677834.921613,-11,-180,1208,-12556,-19355,4016
1721677834.931008,-11,-187,1218,-15207,-18603,3333
1721677834.940403,-13,-163,1217,-18042,-18305,4620
1721677834.949798,-27,-135,1206,-21070,-17877,5232
1721677834.959167,-46,-98,1197,-23756,-17273,4655,-30572,25189,45599,84463,38344, 157858.800, 40.0101694,-105.2441251, 1589.697,1611.026, 11.602,13.968
1721677834.968562,-60,-57,1197,-25742,-16415,2616
1721677834.977957,-75,-41,1199,-26748,-15252,-1427
1721677834.987352,-99,-23,1200,-26600,-13957,-6607
1721677834.996747,-96,-14,1196,-25646,-12592,-12662
1721677835.006142,-80,4,1183,-23966,-10894,-18200
1721677835.015537,-61,15,1153,-21822,-9389,-22785
1721677835.024932,-49,26,1124,-19232,-8330,-25830
1721677835.034332,-33,40,1101,-16318,-7543,-27712,-30395,27136,45294,,, 157858.900, 40.0101714,-105.2441249, 1589.848,1611.176, 11.386,13.713
1721677835.043727,-30,45,1083,-13116,-7035,-28604
1721677835.053122,-38,41,1063,-9686,-6712,-28919
1721677835.062517,-19,30,1045,-6247,-6519,-28674
1721677835.071912,-5,39,1026,-2922,-6344,-27300
1721677835.081307,13,51,1000,140,-6537,-26338
1721677835.090702,30,66,970,3089,-7158,-24693
1721677835.100097,25,65,938,6125,-7989,-23284
1721677835.109466,11,33,917,9100,-9179,-22855,,,,84469,38344
1721677835.118861,23,6,913,11585,-10045,-23074
1721677835.128256,58,-6,909,13327,-10588,-23293
1721677835.137651,83,-25,906,14482,-11227,-22689
1721677835.147046,52,-57,910,15208,-12294,-20519
1721677835.156441,15,-76,915,15383,-13642,-16879
1721677835.165836,15,-80,914,15024,-14254,-11384
1721677835.175231,-10,-69,916,14053,-14062,-6090
1721677835.184631,-62,-72,931,12627,-13642,-3553,-30523,26959,45098,84463,38337, 157859.000, 40.0101718,-105.2441244, 1589.793,1611.121, 11.226,13.520
1721677835.194022,-54,-76,951,11104,-12565,-3168
1721677835.203413,-21,-74,977,9669,-10623,-2617
1721677835.212804,9,-78,1002,8112,-8794,-2660
1721677835.222195,39,-92,1017,6580,-7674,-3107
1721677835.231586,35,-105,1033,4970,-7184,-3133
1721677835.240977,25,-106,1045,3107,-7298,-1768
1721677835.250368,-6,-94,1059,1190,-7543,1085
1721677835.259765,-50,-63,1076,-656,-7569,4480,-31036,26666,44958,84461,38326, 157859.100, 40.0101706,-105.2441239, 1589.684,1611.012, 11.100,13.358
1721677835.269156,-97,-86,1093,-1907,-6939,6886
1721677835.278547,-101,-70,1107,-2537,-5329,7708
1721677835.287938,-64,-72,1106,-3158,-2844,6930
1721677835.297329,-29,-94,1096,-3386,-385,5661
1721677835.306720,-1,-105,1089,-3386,1286,5678
1721677835.316111,11,-89,1083,-3605,2152,7481
1721677835.325502,-7,-74,1080,-3867,2388,9975
1721677835.334899,-11,-56,1078,-3640,2275,12276,-31103,26275,44903,,, 157859.200, 40.0101682,-105.2441235, 1589.420,1610.748, 10.980,13.202
1721677835.344290,-48,-16,1077,-2817,2231,14218
1721677835.353681,-42,2,1075,-1365,2476,15032
1721677835.363072,-50,31,1075,928,3333,14822
1721677835.372463,-31,14,1078,3815,4138,13405
1721677835.381854,-5,-6,1084,7210,4996,11488
1721677835.391245,30,-49,1089,10317,5460,10360
1721677835.400636,16,-110,1109,12845,5328,10998
1721677835.410064,76,-122,1130,14412,4611,13903,-31213,24517,45343,84460,38333
1721677835.419459,87,-105,1146,14753,3920,17981
1721677835.428854,44,-116,1153,14919,2388,22120
1721677835.438249,-6,-105,1155,15129,1041,26171
1721677835.447644,-29,-71,1159,14797,525,27335
1721677835.457039,-56,-90,1154,14517,1067,25681
1721677835.466434,-116,-120,1150,14587,1986,22531
1721677835.475829,-129,-157,1164,14350,3465,17858
1721677835.485229,-74,-190,1166,13467,6055,13903,-30725,23205,46148,84465,38321, 157859.300, 40.0101668,-105.2441234, 1589.137,1610.465, 10.876,13.057
1721677835.494624,-50,-195,1157,12014,8741,11453
1721677835.504019,-52,-221,1133,10168,10701,9791
1721677835.513414,-67,-227,1122,8365,12136,10368
1721677835.522809,-58,-218,1111,6222,13623,11803
1721677835.532204,-72,-194,1096,4148,15172,13606
1721677835.541599,-101,-161,1081,2695,16485,15750
1721677835.550994,-90,-149,1069,1978,17893,16292
1721677835.560394,164,-329,900,2057,19582,14306,,,,84457,38315, 157859.400, 40.0101661,-105.2441239, 1588.813,1610.141, 10.774,12.915
1721677835.569789,409,-119,881,2048,20518,11042
1721677835.579184,296,-41,858,867,16511,16642
1721677835.588579,41,106,888,3885,8128,25707
1721677835.597974,-88,71,951,9538,1767,24202
1721677835.607369,-16,71,984,17483,665,14227
1721677835.616764,-72,8,1005,24203,1951,6702
1721677835.626159,-117,-80,1029,29680,2511,6632
1721677835.635528,-40,-149,1045,32927,4366,4970,-30346,21557,46972,,, 157859.500, 40.0101655,-105.2441240, 1588.401,1609.729, 10.651,12.758
1721677835.644923,-74,-122,1075,33863,6982,-105
1721677835.654318,22,-112,1064,33565,9117,-1287
1721677835.663713,9,-109,1028,32953,11576,-2197
1721677835.673108,69,-167,980,32489,13090,-2249
1721677835.682503,117,-86,964,31702,14665,-1488
1721677835.691898,152,-101,949,29619,15470,-1453
1721677835.701293,64,-147,945,28377,15137,43
1721677835.710662,87,-170,972,26950,14393,463,-29388,19696,47998,84464,38306
1721677835.720057,65,-166,983,24430,14883,1093
1721677835.729452,60,-171,957,21420,15207,2555
1721677835.738847,89,-152,936,18445,15995,3832
1721677835.748242,134,-125,894,15532,16511,3648
1721677835.757637,104,-87,906,13204,16388,2922
1721677835.767032,55,-69,963,12067,15146,3561
1721677835.776427,51,-36,977,12382,14070,3955
1721677835.785827,8,-75,973,13720,13536,2415,-28295,18237,48974,84462,38308, 157859.600, 40.0101660,-105.2441244, 1588.209,1609.537, 10.533,12.606
1721677835.795218,-6,-94,968,15969,13317,192
1721677835.804609,-7,-106,961,17789,13807,-1007
1721677835.814000,-20,-73,958,19189,14743,1128
1721677835.823391,-29,-45,970,20589,16161,3167
1721677835.832782,3,-28,964,22514,18138,2598
1721677835.842173,44,-51,971,25148,20466,385
1721677835.851564,55,-90,961,27992,22155,-2433
1721677835.860961,99,-96,958,30415,23170,-4699,-26757,16278,50219,84458,38299, 157859.700, 40.0101665,-105.2441246, 1588.034,1609.362, 10.421,12.465
1721677835.870352,114,-166,962,31964,23957,-6143
1721677835.879743,154,-223,963,33198,23948,-6484
1721677835.889134,219,-272,972,32813,23913,-6029
1721677835.898525,263,-325,992,30687,23493,-3885
1721677835.907916,258,-345,1030,27143,22417,-884
1721677835.917307,261,-315,1054,22234,21052,2205
1721677835.926698,218,-301,1069,16739,19696,4051
1721677835.936126,170,-284,1076,11690,18418,3797,-25292,15905,51098,,, 157859.800, 40.0101667,-105.2441249, 1587.722,1609.051, 10.322,12.330
1721677835.945517,140,-279,1090,7202,17806,1811
1721677835.954908,144,-296,1099,3369,17876,-1322
1721677835.964299,156,-299,1106,-210,18392,-4612
1721677835.973690,180,-292,1099,-3570,18847,-6817
1721677835.983081,212,-289,1080,-6746,19013,-8663
1721677835.992472,226,-267,1066,-9563,18760,-9354
1721677836.001863,219,-234,1062,-11795,17815,-8217
1721677836.011260,186,-222,1057,-13020,16493,-6292,,,,84466,38299
1721677836.020655,153,-211,1058,-13177,15137,-4848
1721677836.030050,168,-226,1046,-12748,14315,-4909
1721677836.039445,215,-219,1026,-11742,13772,-5784
1721677836.048840,246,-253,1014,-10736,13020,-6572
1721677836.058235,252,-279,1001,-10106,11733,-7114
1721677836.067630,299,-299,1001,-9870,9660,-7508
1721677836.077025,313,-338,998,-10438,7455,-7630
1721677836.086486,301,-363,1012,-11611,4576,-6195,-24273,16644,51739,84459,38303, 157859.900, 40.0101669,-105.2441252, 1587.502,1608.830, 10.239,12.207
1721677836.095881,280,-296,1021,-13737,1330,-2774
1721677836.105276,197,-258,1014,-16432,-1549,1846
1721677836.114671,153,-204,1006,-17981,-3684,5188
1721677836.124066,95,-162,996,-18751,-4017,5066
1721677836.133461,64,-144,988,-18462,-3220,2590
1721677836.142856,65,-148,985,-17587,-1383,-2512
1721677836.152251,74,-103,983,-16222,1006,-7674
1721677836.161651,61,-149,992,-14358,3570,-11498,-23822,17468,51983,84464,38294, 157860.000, 40.0101661,-105.2441248, 1587.208,1608.536, 10.163,12.092
1721677836.171046,76,-282,1005,-11987,5643,-13650
1721677836.180441,178,-281,1027,-10526,7910,-15068
1721677836.189836,255,-363,1017,-11873,9747,-14534
1721677836.199231,246,-504,1001,-14323,10018,-10815
1721677836.208626,310,-482,1014,-19162,8557,-7035
1721677836.218021,348,-423,1005,-26880,6938,-4052
1721677836.227416,343,-359,981,-34912,4086,-2529
1721677836.236785,317,-255,960,-41580,420,-1112,-23516,19732,51782,,, 157860.100, 40.0101646,-105.2441237, 1586.832,1608.161, 10.088,11.981
1721677836.246180,225,-178,959,-46541,-3798,-1400
1721677836.255575,218,-133,981,-48571,-6860,-2730
1721677836.264970,249,-46,980,-48440,-8925,-7070
1721677836.274365,192,17,961,-46742,-10877,-9162
1721677836.283760,106,28,958,-42656,-13213,-8260
1721677836.293155,83,18,971,-36653,-14499,-8357
1721677836.302550,104,-19,982,-30021,-14105,-10308
1721677836.311950,113,-53,990,-23572,-13090,-11437,-23822,20849,51434,84465,38292
1721677836.321345,146,-41,986,-18208,-12137,-10343
1721677836.330740,139,-10,961,-14000,-11227,-8392
1721677836.340135,77,97,936,-9896,-10474,-7035
1721677836.349530,42,57,913,-5363,-9608,-7315
1721677836.358925,88,47,916,552,-7193,-10684
1721677836.368320,127,20,927,5714,-4200,-15409
1721677836.377715,115,-61,938,10142,-2170,-17054
1721677836.387084,127,-70,949,13335,-919,-17317,-23260,20764,51696,84461,38292, 157860.200, 40.0101644,-105.2441232, 1586.710,1608.038, 10.018,11.873
1721677836.396475,99,-161,955,14420,157,-17054
1721677836.405866,86,-162,968,14604,1120,-15820
1721677836.415257,122,-182,963,12679,2415,-17159
1721677836.424648,95,-206,959,9879,3675,-20265
1721677836.434039,108,-210,957,6283,4173,-23984
1721677836.443430,124,-218,962,2109,4751,-27353
1721677836.452821,168,-213,964,-2301,4865,-31938
1721677836.462219,197,-219,965,-6571,4235,-36033,,,,84473,38290, 157860.300, 40.0101649,-105.2441228, 1586.693,1608.021, 9.944,11.767
1721677836.471610,198,-226,977,-10473,2476,-38597
1721677836.481001,203,-212,996,-14078,-175,-39454
1721677836.490392,223,-188,998,-17526,-3054,-39594
1721677836.499783,241,-171,993,-20405,-6038,-39708
1721677836.509174,265,-149,985,-22811,-9468,-38815
1721677836.518565,270,-121,979,-24902,-13274,-37197
1721677836.527956,233,-94,980,-26801,-17518,-35167
1721677836.537383,180,-49,984,-28218,-21735,-33662,-23272,23248,51129,,, 157860.400, 40.0101657,-105.2441220, 1586.842,1608.170, 9.869,11.638
1721677836.546774,116,-22,999,-29365,-25235,-34580
1721677836.556165,78,0,1009,-29916,-27458,-38255
1721677836.565556,32,31,1026,-30065,-28368,-44135
1721677836.574947,25,34,1037,-29776,-28307,-51144
1721677836.584338,-9,36,1051,-28840,-27230,-58188
1721677836.593729,-35,13,1070,-27886,-25725,-64925
1721677836.603120,-16,10,1079,-26976,-23442,-70219
1721677836.612518,13,2,1074,-26626,-20668,-74218,-23504,27020,49816,84461,38283
1721677836.621909,25,-1,1059,-26600,-18253,-75968
1721677836.631300,48,5,1048,-26958,-16328,-75828
1721677836.640691,35,41,1051,-27755,-14840,-74542
1721677836.650082,-18,101,1061,-28481,-14114,-73194
1721677836.659473,-103,132,1080,-28455,-13519,-73500
1721677836.668864,-134,152,1098,-27413,-12128,-77587
1721677836.678255,-149,138,1111,-25593,-9652,-84937
1721677836.687683,-152,120,1121,-23397,-6983,-93485,-21258,31671,48864,84463,38283, 157860.500, 40.0101667,-105.2441216, 1587.018,1608.346, 9.781,11.499
1721677836.697078,-122,100,1128,-21341,-4498,-101343
1721677836.706473,-87,88,1126,-19617,-2197,-107818
1721677836.715868,-59,53,1124,-18243,-674,-112438
1721677836.725263,-34,49,1129,-17622,96,-114555
1721677836.734658,-19,42,1135,-17491,96,-114835
1721677836.744053,-8,41,1130,-17508,-350,-113567
1721677836.753448,-1,57,1122,-17648,-1059,-111335
1721677836.762847,-8,55,1117,-17841,-2022,-109804,-17340,36163,47967,84465,38272, 157860.600, 40.0101720,-105.2441229, 1587.446,1608.775, 9.647,11.331
1721677836.772242,-23,45,1115,-17902,-3150,-109559
1721677836.781637,-31,42,1114,-17937,-4200,-110994
1721677836.791032,-23,32,1103,-18138,-5102,-114153
1721677836.800427,-39,31,1090,-18331,-5898,-118309
1721677836.809822,-48,30,1080,-18602,-6790,-122850
1721677836.819217,-32,6,1074,-18733,-7517,-127899
1721677836.828612,-15,-14,1082,-18602,-8077,-131880
1721677836.837982,9,-30,1100,-18488,-8777,-133578,-12713,40118,46752,,, 157860.700, 40.0101764,-105.2441240, 1587.751,1609.080, 9.536,11.185
1721677836.847377,30,-22,1101,-18182,-9783,-132239
1721677836.856772,21,-32,1096,-17526,-11218,-128284
1721677836.866167,-9,-35,1089,-16590,-12775,-122947
1721677836.875562,-47,-13,1088,-15785,-14202,-117355
1721677836.884957,-106,3,1079,-15216,-15217,-112823
1721677836.894352,-159,9,1067,-14367,-15619,-110600
1721677836.903747,-191,22,1056,-13378,-15164,-111642
1721677836.913360,-194,13,1039,-12460,-13773,-115877,,,,84460,38263
1721677836.922755,-202,-36,1022,-11270,-11979,-122763
1721677836.932150,-218,-105,1021,-10088,-9967,-129579
1721677836.941545,-198,-153,1020,-9528,-7840,-134112
1721677836.950940,-208,-203,1013,-9660,-5189,-135485
1721677836.960335,-207,-233,1010,-10403,-2345,-134925
1721677836.969730,-191,-303,991,-11795,1268,-132475
1721677836.979125,-115,-282,971,-13991,5573,-124242
1721677836.988281,-38,-243,942,-17281,9677,-113383,-6213,42755,45611,84466,38265, 157860.800, 40.0101805,-105.2441252, 1587.873,1609.201, 9.416,11.058
1721677836.997676,-21,-237,910,-20116,12206,-105342
1721677837.007071,-15,-224,885,-22181,13177,-100057
1721677837.016466,5,-201,867,-23966,13431,-96889
1721677837.025861,3,-241,855,-25445,13195,-95192
1721677837.035256,-31,-331,877,-26468,12153,-94063
1721677837.044651,21,-357,929,-27921,10990,-91482
1721677837.054046,144,-311,952,-30380,10176,-85733
1721677837.063445,217,-308,949,-32978,8006,-78715,-854,45153,43713,84465,38261, 157860.900, 40.0101829,-105.2441262, 1587.922,1609.251, 9.320,10.964
1721677837.072836,254,-318,940,-34615,3412,-70779
1721677837.082227,306,-276,948,-35936,-2862,-61504
1721677837.091618,322,-216,947,-37117,-10194,-50768
1721677837.101009,266,-196,943,-37520,-18839,-40233
1721677837.110400,224,-180,936,-36697,-27834,-31824
1721677837.119791,175,-131,918,-35385,-35910,-26303
1721677837.129182,143,-94,889,-34046,-43295,-23363
1721677837.138580,99,-85,865,-32051,-49884,-23118,-921,46881,41662,,, 157861.000, 40.0101868,-105.2441275, 1588.093,1609.421, 9.231,10.864
1721677837.147971,97,-56,861,-29846,-55852,-25323
1721677837.157362,126,-43,856,-27527,-60918,-27475
1721677837.166753,137,-50,855,-24806,-65783,-28718
1721677837.176144,136,-57,850,-21778,-71138,-27747
1721677837.185535,87,-70,865,-18830,-76650,-23914
1721677837.194926,44,-65,884,-16003,-81988,-18445
1721677837.204317,-44,-76,906,-13466,-86372,-13397
1721677837.213714,-147,-79,928,-11077,-89574,-8435,-3558,47723,40515,84467,38258
1721677837.223105,-209,-42,943,-9091,-90659,-4559
1721677837.232496,-258,-31,942,-7770,-89670,-3877
1721677837.241887,-321,-8,936,-6413,-87124,-4787
1721677837.251278,-364,-3,943,-5215,-83685,-5583
1721677837.260669,-351,8,961,-3570,-79170,-7097
1721677837.270060,-343,7,986,-1435,-74559,-9205
1721677837.279451,-360,54,1017,1453,-70797,-9678
1721677837.288879,-418,121,1041,5268,-68102,-9328,,,,84460,38256, 157861.100, 40.0101892,-105.2441289, 1588.255,1609.583, 9.170,10.767
1721677837.298270,-449,195,1090,10395,-66378,-10693
1721677837.307661,-513,294,1167,17037,-65170,-14377
1721677837.317052,-629,312,1242,24929,-64637,-19233
1721677837.326443,-717,285,1306,34904,-63779,-25393
1721677837.335834,-750,261,1341,45378,-60804,-32655
1721677837.345225,-798,216,1334,55038,-55598,-39034
1721677837.354616,-800,153,1311,63587,-48624,-44022
1721677837.364013,-760,111,1282,70237,-39612,-49035,-3808,46563,41577,84461,38249, 157861.200, 40.0101908,-105.2441299, 1588.444,1609.772, 9.117,10.680
1721677837.373404,-750,76,1242,74647,-29532,-52369
1721677837.382795,-711,61,1200,77289,-19207,-53612
1721677837.392186,-645,40,1159,78628,-8724,-56184
1721677837.401577,-573,35,1121,79258,1295,-60148
1721677837.410968,-521,31,1090,79617,9721,-63744
1721677837.420359,-484,20,1068,80308,16476,-66343
1721677837.429750,-421,3,1051,81533,21708,-68635
1721677837.439178,-363,-23,1027,83195,25935,-70228,1287,42431,45202,,, 157861.300, 40.0101919,-105.2441299, 1588.545,1609.873, 9.045,10.549
1721677837.448569,-297,-44,1000,84972,28647,-70692
1721677837.457960,-262,-81,980,86433,30030,-69852
1721677837.467351,-264,-115,984,87177,30248,-68040
1721677837.476742,-277,-133,995,86958,29767,-65940
1721677837.486133,-275,-158,1003,85715,29295,-64777
1721677837.495524,-260,-169,1002,83650,29023,-64715
1721677837.504915,-243,-191,1003,80710,28726,-65975
1721677837.514312,-220,-211,1011,77324,28078,-68294,7159,37164,48114,84467,38249
1721677837.523703,-194,-235,1024,73544,27212,-71164
1721677837.533094,-176,-247,1038,69554,25987,-73632
1721677837.542485,-208,-244,1052,65310,24395,-74752
1721677837.551876,-251,-241,1084,61172,22575,-75452
1721677837.561267,-332,-227,1123,57444,21490,-76397
1721677837.570658,-411,-212,1156,54233,21420,-77079
1721677837.580049,-372,-176,1162,51739,23021,-79319
1721677837.589446,-430,-282,1160,50050,25838,-82285,12762,32244,49151,84464,38240, 157861.400, 40.0101935,-105.2441307, 1588.829,1610.157, 8.958,10.408
1721677837.598837,-258,-380,1148,49202,28787,-84237
1721677837.608228,-102,-394,1107,46043,32278,-84989
1721677837.617619,-213,-428,1108,40530,32978,-79783
1721677837.627010,-170,-360,1114,34467,31727,-73229
1721677837.636401,-173,-287,1111,27782,31675,-69922
1721677837.645792,-251,-223,1106,22479,30905,-65713
1721677837.655183,-294,-141,1103,18935,30021,-62125
1721677837.664611,-323,-98,1094,17002,30450,-61933,17895,28094,48986,84457,38240, 157861.500, 40.0101946,-105.2441315, 1588.987,1610.315, 8.894,10.309
1721677837.674002,-331,-73,1069,16844,31631,-64295
1721677837.683393,-326,-71,1041,17623,33442,-67323
1721677837.692784,-304,-112,1021,18865,35341,-69992
1721677837.702175,-256,-139,1009,20038,37240,-71917
1721677837.711566,-230,-179,986,20405,38683,-71829
1721677837.720957,-236,-209,977,20108,39270,-69414
1721677837.730348,-259,-191,970,18699,39480,-65652
1721677837.739746,-277,-170,958,16284,40048,-61872,,,,,, 157861.600, 40.0101967,-105.2441315, 1589.096,1610.425, 8.838,10.232
1721677837.749137,-289,-139,944,13572,41273,-58897
1721677837.758528,-284,-111,934,10789,43233,-56954
1721677837.767919,-220,-101,908,8234,45447,-56079
1721677837.777310,-172,-72,894,6038,47136,-54880
1721677837.786701,-171,-72,886,4437,47363,-52929
1721677837.796092,-229,-78,832,3623,46261,-51127
1721677837.805483,27,-223,782,3290,45036,-50400
1721677837.814910,-10,-69,911,2065,43855,-53340,22668,23919,47619,84467,38238
1721677837.824301,-132,-144,929,149,38237,-44205
1721677837.833692,-55,-140,933,770,32777,-35578
1721677837.843083,25,-140,954,412,29163,-32708
1721677837.852474,-28,-141,982,-297,24596,-27589
1721677837.861865,-138,-100,1019,-1653,18541,-21744
1721677837.871256,-139,-15,1072,-3570,13396,-19837
1721677837.880647,-241,-68,1104,-5057,9957,-23039
1721677837.890045,-118,-7,1108,-5363,7105,-27790,24890,20989,47003,84468,38231, 157861.700, 40.0101983,-105.2441320, 1589.237,1610.565, 8.782,10.159
1721677837.899436,-134,-85,1143,-6352,5853,-34493
1721677837.908827,-104,-41,1158,-6746,3561,-40180
1721677837.918218,-136,-33,1158,-7516,1286,-40784
1721677837.927609,-174,17,1159,-7463,-762,-41117
1721677837.937000,-194,67,1157,-6816,-1733,-40618
1721677837.946391,-218,80,1152,-5320,-1479,-40627
1721677837.955782,-229,89,1165,-2782,-455,-41195
1721677837.965179,-226,95,1187,289,1207,-42210,25915,16833,46820,84469,38233, 157861.800, 40.0101968,-105.2441315, 1589.247,1610.575, 8.713,10.057
1721677837.974570,-221,87,1203,3658,3202,-42902
1721677837.983961,-213,80,1206,7517,4961,-42735
1721677837.993352,-218,63,1203,11384,6623,-42140
1721677838.002743,-206,46,1192,15147,7883,-41685
1721677838.012134,-181,-14,1172,18262,9108,-41939
1721677838.021525,-158,-73,1151,20484,10132,-41948
1721677838.030916,-128,-110,1129,20790,10832,-41502
1721677838.040374,-120,-134,1108,19215,11313,-39585,26873,12359,46478,,, 157861.900, 40.0101967,-105.2441318, 1589.216,1610.544, 8.660,9.976
1721677838.049765,-96,-143,1088,16599,11698,-36462
1721677838.059156,-64,-134,1065,13160,12110,-33198
1721677838.068547,-50,-117,1050,9240,12425,-29820
1721677838.077938,-65,-93,1044,5382,12145,-25620
1721677838.087329,-86,-54,1042,2109,11795,-21280
1721677838.096720,-123,-17,1042,-385,11725,-18594
1721677838.106111,-158,24,1046,-1820,12022,-18288
1721677838.115508,-144,37,1039,-2283,12941,-20974,27459,8349,45758,84470,38231
1721677838.124899,-157,39,1044,-1793,14323,-25419
1721677838.134290,-104,9,1042,-822,15505,-30092
1721677838.143681,-71,-29,1049,272,16590,-34974
1721677838.153072,-29,-73,1052,1155,16633,-37302
1721677838.162463,-11,-102,1047,1645,16161,-36750
1721677838.171854,11,-95,1035,1392,14875,-33749
1721677838.181245,22,-108,1016,657,13562,-29453
1721677838.190673,27,-125,1000,-402,12197,-25927,,,,84458,38224, 157862.000, 40.0101978,-105.2441330, 1589.159,1610.487, 8.619,9.913
1721677838.200064,4,-99,997,-2056,10946,-23827
1721677838.209455,-17,-72,997,-4217,10115,-23748
1721677838.218846,-63,-32,1004,-5941,10202,-26067
1721677838.228237,-71,-36,1013,-6895,11112,-27965
1721677838.237628,-48,-25,1019,-6667,13247,-29584
1721677838.247019,-42,-18,1024,-5950,15601,-29995
1721677838.256410,-48,14,1024,-4663,17500,-27554
1721677838.265808,-63,39,1018,-2835,19092,-23818,27551,4681,44976,84467,38227, 157862.100, 40.0101977,-105.2441327, 1588.955,1610.283, 8.567,9.835
1721677838.275199,-67,39,1016,-411,20693,-20082
1721677838.284590,-83,25,1019,2354,22400,-17343
1721677838.293981,-75,8,1022,4927,24001,-15462
1721677838.303372,-43,-9,1022,6904,25515,-14902
1721677838.312763,-23,-35,1022,8287,26705,-15155
1721677838.322154,-5,-63,1029,8969,27168,-15427
1721677838.331545,9,-76,1040,8943,27011,-14972
1721677838.340942,0,-84,1049,8173,26206,-13790,27996,933,43414,,, 157862.200, 40.0101960,-105.2441327, 1588.644,1609.972, 8.526,9.769
1721677838.350333,-9,-81,1049,7053,24963,-12084
1721677838.359724,-22,-71,1046,5653,23703,-10255
1721677838.369115,-39,-63,1044,4165,22461,-8925
1721677838.378506,-44,-55,1035,2809,21323,-8488
1721677838.387897,-57,-66,1028,1742,20405,-8987
1721677838.397288,-50,-75,1019,814,19696,-9984
1721677838.406679,-45,-71,1012,-26,19285,-10885
1721677838.416107,-34,-67,1003,-647,18996,-10632,27905,-2471,42199,84465,38224
1721677838.425498,-14,-81,990,-866,18707,-9354
1721677838.434889,0,-105,979,-385,18567,-7788
1721677838.444280,13,-128,978,237,18016,-5662
1721677838.453671,17,-173,974,735,17255,-3098
1721677838.463062,41,-198,967,937,16476,-1225
1721677838.472453,50,-225,976,280,15636,-858
1721677838.481844,21,-239,992,-796,14603,166
1721677838.491241,13,-262,1004,-2143,13632,945,27551,-4846,41412,84464,38220, 157862.300, 40.0101965,-105.2441339, 1588.513,1609.841, 8.471,9.690
1721677838.500632,37,-268,1011,-3491,13422,1163
1721677838.510023,45,-274,1011,-4742,13597,1750
1721677838.519414,50,-276,1009,-5862,13562,4033
1721677838.528805,61,-252,1013,-6676,13335,8286
1721677838.538196,46,-261,1016,-7428,13107,11208
1721677838.547587,75,-264,1021,-7813,12853,13711
1721677838.556978,93,-250,1029,-8356,12853,17158
1721677838.566406,106,-233,1036,-9126,12451,21848,27435,-5798,41070,84465,38213, 157862.400, 40.0101985,-105.2441351, 1588.544,1609.872, 8.425,9.630
1721677838.575801,94,-213,1043,-9948,11515,26853
1721677838.585196,85,-210,1047,-10736,10281,30878
1721677838.594591,74,-219,1053,-11637,8872,31832
1721677838.603986,82,-231,1065,-12950,7516,30248
1721677838.613381,76,-271,1085,-14656,5932,27046
1721677838.622776,86,-321,1110,-16502,3990,22776
1721677838.632171,117,-386,1134,-18952,2082,17753
1721677838.641570,144,-421,1142,-22242,-132,14936,,,,,, 157862.500, 40.0102059,-105.2441370, 1589.279,1610.607, 8.327,9.544
1721677838.650965,156,-429,1138,-26302,-3098,16607
1721677838.660360,183,-436,1124,-30712,-6397,21227
1721677838.669755,203,-427,1110,-34991,-9940,27142
1721677838.679150,219,-397,1102,-39042,-13764,33582
1721677838.688545,221,-376,1090,-42577,-17990,39620
1721677838.697940,186,-333,1076,-45211,-22610,45228
1721677838.707335,160,-275,1057,-47013,-27213,49638
1721677838.716735,145,-219,1028,-47897,-31220,51327,26214,-4467,42547,84465,38215
1721677838.726130,125,-198,1002,-47451,-34607,50636
1721677838.735525,117,-210,982,-45928,-37170,48606
1721677838.744920,125,-222,976,-44091,-39008,45990
1721677838.754315,109,-237,970,-42577,-40110,44117
1721677838.763710,86,-210,973,-41501,-40872,44966
1721677838.773105,47,-200,975,-40792,-40837,48168
1721677838.782500,2,-193,980,-39812,-39822,51695
1721677838.791870,-5,-163,988,-38596,-37765,54118,24456,-2423,44720,84467,38215, 157862.600, 40.0102123,-105.2441384, 1589.914,1611.242, 8.235,9.464
1721677838.801265,-28,-134,994,-37213,-35018,56376
1721677838.810660,-45,-96,990,-35192,-32017,59342
1721677838.820055,-60,-61,978,-32576,-28858,61346
1721677838.829450,-65,-28,965,-29461,-25585,61783
1721677838.838845,-59,-2,957,-25760,-22234,60698
1721677838.848240,-57,28,956,-21717,-19119,58747
1721677838.857635,-64,40,958,-17430,-16380,56026
1721677838.867004,-75,47,965,-12705,-13930,52788,24053,-1635,45043,84462,38197, 157862.700, 40.0102188,-105.2441398, 1590.528,1611.856, 8.143,9.385
1721677838.876399,-65,30,976,-7988,-11603,49866
1721677838.885794,-41,7,989,-3526,-9240,46856
1721677838.895189,13,-13,989,385,-7193,44511
1721677838.904584,37,-26,984,3518,-5557,43557
1721677838.913979,49,-48,983,5845,-4848,43898
1721677838.923374,58,-35,988,7394,-4542,45088
1721677838.932769,65,-32,991,8330,-4454,46550
1721677838.942169,57,-27,992,8899,-4612,47460,23931,-2166,44360,,, 157862.800, 40.0102259,-105.2441414, 1591.241,1612.569, 8.053,9.307
1721677838.951560,43,-25,995,9345,-4962,47801
1721677838.960951,33,-20,1003,9573,-5067,46646
1721677838.970342,43,-28,1006,9590,-4795,43583
1721677838.979733,55,-51,1007,9538,-4358,40083
1721677838.989124,67,-72,1016,9284,-3877,37231
1721677838.998515,113,-76,1025,8444,-3404,34623
1721677839.007906,149,-88,1024,7350,-2905,32541
1721677839.017303,154,-93,1022,6090,-3089,32410,,,,84463,38202
1721677839.026694,162,-88,1022,4542,-3623,34020
1721677839.036085,166,-84,1024,2687,-4008,35761
1721677839.045476,158,-65,1029,1015,-4297,37327
1721677839.054867,137,-66,1038,-516,-4454,38902
1721677839.064258,145,-60,1049,-1715,-4375,39620
1721677839.073649,141,-45,1062,-2826,-4104,39541
1721677839.083040,147,-42,1064,-3858,-3964,39173
1721677839.092437,158,-26,1064,-4690,-3964,38963,23846,-2368,43884,84465,38202, 157862.900, 40.0102327,-105.2441430, 1591.900,1613.228, 7.963,9.228
1721677839.101828,140,-22,1067,-5565,-4279,38281
1721677839.111219,123,-1,1071,-6326,-4857,38465
1721677839.120610,89,15,1079,-7026,-5382,39637
1721677839.130001,65,30,1084,-7472,-5592,40486
1721677839.139392,38,52,1084,-7778,-5294,41273
1721677839.148783,-3,53,1087,-7953,-4804,41545
1721677839.158174,-26,62,1094,-8093,-4078,41230
1721677839.167602,-51,67,1099,-8505,-2879,39357,23663,-1959,43524,84463,38193, 157863.000, 40.0102376,-105.2441432, 1592.446,1613.774, 7.875,9.146
1721677839.176993,-57,81,1102,-9117,-1427,36741
1721677839.186384,-72,86,1108,-9721,245,33617
1721677839.195775,-70,92,1110,-10176,1942,30248
1721677839.205166,-64,98,1110,-10473,3745,26643
1721677839.214557,-39,109,1097,-10675,5425,22933
1721677839.223948,-23,110,1084,-10543,6877,19888
1721677839.233339,2,130,1077,-10202,7840,17727
1721677839.242736,12,140,1072,-9616,8251,16371,23657,-2349,42694,,, 157863.100, 40.0102455,-105.2441448, 1593.368,1614.696, 7.750,9.024
1721677839.252127,-2,157,1079,-8443,8050,16240
1721677839.261518,-23,176,1085,-6842,7577,16686
1721677839.270909,-48,188,1078,-4690,7253,16563
1721677839.280300,-69,191,1065,-2073,7402,14962
1721677839.289691,-79,188,1063,587,8050,11821
1721677839.299082,-70,195,1075,3098,9275,7708
1721677839.308473,-43,175,1087,5670,10727,2712
1721677839.317932,-39,156,1101,8602,11970,-2345,23120,-4565,41088,84463,38195
1721677839.327323,-7,124,1116,11612,12591,-6274
1721677839.336714,-3,82,1127,14613,12897,-8374
1721677839.346105,6,47,1134,17168,12442,-8208
1721677839.355496,-2,27,1138,19049,11681,-5889
1721677839.364887,-18,18,1138,20300,10535,-2372
1721677839.374278,-44,13,1140,20948,9397,778
1721677839.383669,-79,12,1146,20992,8356,2397
1721677839.393066,-122,5,1151,20642,7656,2196,22033,-7196,39587,84464,38186, 157863.200, 40.0102550,-105.2441464, 1594.407,1615.735, 7.636,8.920
1721677839.402457,-147,0,1158,20082,7393,192
1721677839.411848,-136,-23,1164,19303,7717,-4393
1721677839.421239,-116,-43,1168,18148,8216,-9722
1721677839.430630,-59,-56,1163,16625,8286,-13992
1721677839.440021,-23,-62,1148,14718,7813,-16319
1721677839.449412,13,-58,1132,12259,6501,-15855
1721677839.458803,44,-45,1120,9380,4672,-14027
1721677839.468200,49,-34,1118,6230,2310,-11699,,,,84464,38186, 157863.300, 40.0102593,-105.2441480, 1594.943,1616.271, 7.548,8.849
1721677839.477591,56,-16,1121,3185,-307,-9109
1721677839.486982,45,-10,1122,420,-2835,-7053
1721677839.496373,6,-16,1134,-1776,-5329,-5303
1721677839.505764,-22,-20,1148,-3648,-7359,-4008
1721677839.515155,-44,-35,1153,-5425,-8549,-3518
1721677839.524546,-50,-46,1149,-7236,-8864,-3413
1721677839.533937,-43,-62,1142,-9266,-8304,-3264
1721677839.543365,-46,-74,1148,-11558,-7333,-2713,20123,-8422,39276,,, 157863.400, 40.0102661,-105.2441494, 1595.705,1617.033, 7.460,8.775
1721677839.552756,-55,-67,1170,-13982,-6257,-840
1721677839.562147,-80,-54,1184,-16353,-4865,2528
1721677839.571538,-98,-38,1194,-18165,-3282,6028
1721677839.580929,-110,-20,1193,-19320,-1365,8268
1721677839.590320,-107,-8,1178,-20063,971,9336
1721677839.599711,-93,4,1151,-20553,3578,9248
1721677839.609102,-83,16,1119,-21175,6151,8260
1721677839.618499,-60,41,1084,-21936,8645,6553,18920,-8312,39367,84463,38182
1721677839.627890,-46,43,1047,-22758,10902,3788
1721677839.637281,-15,28,1014,-23406,12958,-202
1721677839.646672,10,-6,991,-23992,14796,-4857
1721677839.656063,17,-55,983,-24788,16275,-7727
1721677839.665454,44,-90,974,-26197,17395,-8339
1721677839.674845,93,-116,953,-28253,18821,-7237
1721677839.684236,118,-155,937,-31080,20072,-3973
1721677839.693664,136,-137,939,-34658,20868,1960,18591,-7336,39477,84461,38182, 157863.500, 40.0102728,-105.2441511, 1596.487,1617.815, 7.378,8.705
1721677839.703055,124,-75,944,-38745,21210,10867
1721677839.712446,79,16,941,-42280,21183,21735
1721677839.721837,29,100,932,-44056,21262,30887
1721677839.731228,-7,149,923,-43758,21857,34370
1721677839.740619,-24,169,923,-41606,23117,33206
1721677839.750010,0,140,928,-38123,24727,28997
1721677839.759401,0,96,952,-33976,26267,23677
1721677839.768798,52,64,963,-30038,27168,18576,19219,-6109,38757,84462,38175, 157863.600, 40.0102778,-105.2441540, 1596.964,1618.292, 7.292,8.623
1721677839.778189,100,28,952,-26670,27833,15592
1721677839.787580,98,28,935,-24010,27693,16187
1721677839.796971,96,68,925,-22172,26748,21052
1721677839.806362,82,119,920,-20483,26232,27343
1721677839.815753,61,154,914,-17937,26197,32751
1721677839.825144,58,195,904,-14402,26503,36758
1721677839.834535,47,186,894,-10053,27317,39550
1721677839.843933,35,163,902,-5197,27991,40337,20642,-5426,37243,,, 157863.700, 40.0102825,-105.2441565, 1597.487,1618.815, 7.211,8.539
1721677839.853324,56,137,907,-778,28673,40005
1721677839.862715,125,122,891,2862,29592,39900
1721677839.872106,188,105,859,5347,29898,41177
1721677839.881497,236,80,821,6887,29006,42857
1721677839.890888,238,91,794,7298,26950,45552
1721677839.900279,206,111,779,6668,23800,50172
1721677839.909670,161,145,770,5837,20396,54110
1721677839.919097,98,155,771,5347,17360,54670,,,,84462,38177
1721677839.928492,35,145,786,5364,14743,52535
1721677839.937887,7,133,818,5557,12766,48711
1721677839.947282,41,108,842,5889,11278,43417
1721677839.956677,68,50,848,6248,9878,36662
1721677839.966072,117,0,856,5915,7665,30021
1721677839.975467,150,-39,884,4332,4541,26057
1721677839.984862,92,0,929,1567,113,25873
1721677839.994262,-21,80,982,-1487,-5242,29303,20989,-5261,36260,84463,38172, 157863.800, 40.0102827,-105.2441577, 1597.432,1618.760, 7.179,8.501
1721677840.003657,-52,157,1031,-3211,-9695,31281
1721677840.013052,-75,238,1073,-2598,-12145,30432
1721677840.022447,-98,270,1120,377,-14307,29426
1721677840.031842,-97,284,1165,5740,-16232,28700
1721677840.041237,-96,284,1186,12163,-17710,27588
1721677840.050632,-94,246,1176,18918,-18690,26241
1721677840.060027,-92,176,1149,24789,-18865,23721
1721677840.069427,-91,102,1121,28604,-17955,20580,20062,-5969,35876,84460,38168, 157863.900, 40.0102822,-105.2441586, 1597.341,1618.669, 7.152,8.464
1721677840.078822,-78,25,1094,29453,-16048,17263
1721677840.088217,-50,-56,1065,27379,-13239,13650
1721677840.097612,5,-111,1048,22575,-10045,10500
1721677840.107007,51,-115,1049,15558,-7517,9808
1721677840.116402,79,-116,1057,7412,-6362,10946
1721677840.125797,62,-97,1088,-332,-6755,13615
1721677840.135192,39,-41,1109,-7000,-8602,18313
1721677840.144561,31,-7,1105,-12180,-11113,23616,19165,-5548,36322,,, 157864.000, 40.0102858,-105.2441600, 1597.876,1619.204, 7.088,8.395
1721677840.153956,27,17,1094,-15548,-13860,27693
1721677840.163351,37,43,1077,-17701,-16888,31045
1721677840.172746,42,72,1058,-19328,-20475,33993
1721677840.182141,32,103,1045,-20527,-24509,35770
1721677840.191536,28,150,1035,-21280,-28963,36146
1721677840.200931,27,192,1025,-21778,-33460,34938
1721677840.210326,8,222,1017,-21568,-37949,32768
1721677840.219695,-10,251,1014,-20641,-42499,29977,16796,-4461,38568,84459,38170
1721677840.229090,-28,225,1025,-19153,-46752,25558
1721677840.238485,0,171,1033,-17333,-50374,19460
1721677840.247880,18,117,1028,-15785,-53472,13947
1721677840.257275,58,78,1001,-15461,-56482,11200
1721677840.266670,25,74,973,-16607,-59150,11287
1721677840.276065,-86,147,967,-19110,-61513,14183
1721677840.285460,-198,220,976,-21866,-62405,18016
1721677840.294860,-302,287,992,-23345,-60472,18453,14526,-3997,40307,84464,38168, 157864.100, 40.0102895,-105.2441611, 1598.404,1619.732, 7.022,8.322
1721677840.304251,-340,344,996,-23135,-56044,15671
1721677840.313642,-314,349,979,-20947,-49727,10193
1721677840.323033,-287,311,971,-17080,-43059,3473
1721677840.332424,-237,258,966,-12346,-37363,-1925
1721677840.341815,-179,194,943,-7507,-32577,-5583
1721677840.351206,-134,137,924,-2983,-29033,-6694
1721677840.360597,-54,81,888,630,-26670,-5259
1721677840.369995,0,19,869,3203,-25130,-1855,,,,84461,38163, 157864.200, 40.0102920,-105.2441626, 1598.682,1620.011, 6.947,8.229
1721677840.379386,-4,9,878,4507,-25157,4436
1721677840.388777,-51,31,880,4550,-26600,13440
1721677840.398168,-73,22,869,3964,-28543,21026
1721677840.407559,-118,51,874,2774,-30223,23511
1721677840.416950,-183,117,886,639,-32200,22032
1721677840.426341,-213,98,894,-1478,-33644,16931
1721677840.435732,-168,65,904,-2765,-34003,7245
1721677840.445159,-120,2,916,-4261,-33907,-2923,12884,-4443,41406,,, 157864.300, 40.0102953,-105.2441639, 1598.895,1620.223, 6.852,8.104
1721677840.454550,-114,-66,926,-6133,-34344,-8007
1721677840.463941,-148,-90,953,-8793,-35394,-6300
1721677840.473332,-205,-53,1001,-12495,-36619,-403
1721677840.482723,-254,1,1039,-16353,-37529,4900
1721677840.492114,-290,70,1066,-19127,-37792,8408
1721677840.501505,-327,133,1080,-20571,-37888,9187
1721677840.510896,-313,172,1097,-20501,-38133,7455
1721677840.520294,-321,196,1106,-19153,-38605,4453,10540,-4040,42999,84461,38161
1721677840.529685,-329,206,1100,-17001,-39970,1995
1721677840.539076,-338,217,1085,-14140,-41458,971
1721677840.548467,-407,228,1085,-10990,-43033,1627
1721677840.557858,-468,233,1095,-7717,-44004,2835
1721677840.567249,-515,254,1097,-4243,-43497,2318
1721677840.576640,-545,260,1084,-875,-40784,761
1721677840.586031,-530,257,1065,2792,-36243,-2625
1721677840.595428,-528,252,1048,6493,-30039,-7902,8325,-5334,43530,84465,38159, 157864.400, 40.0102973,-105.2441651, 1599.099,1620.427, 6.775,8.013
1721677840.604819,-548,208,1041,10448,-23048,-12749
1721677840.614210,-527,161,1048,14770,-15269,-17570
1721677840.623601,-486,142,1051,19347,-6624,-21097
1721677840.632992,-425,126,1029,24124,2117,-22094
1721677840.642383,-426,117,1013,29313,10018,-21272
1721677840.651774,-446,148,1014,34537,16283,-18349
1721677840.661165,-479,155,1016,39629,21385,-16197
1721677840.670593,-492,154,1025,45194,25882,-17798,7781,-9558,41436,84466,38152, 157864.500, 40.0102954,-105.2441656, 1598.742,1620.070, 6.734,7.971
1721677840.679984,-467,201,1019,50925,29872,-22164
1721677840.689375,-450,209,999,56578,33013,-29085
1721677840.698766,-424,157,991,62458,34580,-39235
1721677840.708157,-393,128,1000,67944,34816,-51022
1721677840.717548,-361,97,991,72118,33722,-60515
1721677840.726939,-374,8,992,75443,31727,-67358
1721677840.736330,-208,-45,978,77219,29513,-72652
1721677840.745727,-134,-173,959,76397,27816,-74822,,,,,, 157864.600, 40.0102942,-105.2441658, 1598.514,1619.842, 6.693,7.926
1721677840.755118,-121,-203,972,72634,24001,-71567
1721677840.764509,-106,-154,978,65302,19538,-61723
1721677840.773900,-218,-142,985,55860,16056,-53787
1721677840.783291,-318,-56,1001,46069,13475,-45142
1721677840.792682,-328,8,1042,36164,13737,-40942
1721677840.802073,-205,5,1072,28009,16721,-41519
1721677840.811464,-72,-203,1075,22628,20431,-40609
1721677840.820892,44,-168,1085,18209,22592,-43392,5212,-13397,39105,84458,38145
1721677840.830283,150,67,1071,12172,22522,-46340
1721677840.839674,-258,-436,1140,8838,20195,-56079
1721677840.849065,-253,-140,1080,7963,18777,-52212
1721677840.858456,-166,-78,1077,2888,24167,-26469
1721677840.867847,-126,-16,1062,1182,29697,-15243
1721677840.877238,-112,19,1054,1418,33092,-8409
1721677840.886629,-125,86,1043,3045,35350,-6790
1721677840.896026,-138,148,1027,6169,36916,-4542,3973,-14636,38250,84463,38150, 157864.700, 40.0102941,-105.2441664, 1598.465,1619.793, 6.645,7.861
1721677840.905417,-130,147,1005,10868,38605,-6090
1721677840.914808,-81,135,968,16940,40346,-11988
1721677840.924199,-10,53,935,23529,41641,-18830
1721677840.933590,93,-43,913,29812,41781,-25174
1721677840.942981,155,-86,894,34650,40127,-27790
1721677840.952372,170,-20,951,37345,35971,-25743
1721677840.961763,76,447,1355,38614,30143,-20974
1721677840.971160,-191,393,1495,42272,23047,-10798,2453,-17254,35717,84462,38145, 157864.800, 40.0102933,-105.2441661, 1598.289,1619.617, 6.600,7.799
1721677840.980551,-270,113,1321,51905,16756,-8199
1721677840.989942,-149,-460,1211,58100,15207,-22742
1721677840.999333,-140,-309,1310,57610,15146,-36698
1721677841.008724,236,-375,1180,44905,18523,-44319
1721677841.018115,350,-332,1024,31798,27475,-40828
1721677841.027506,417,-305,739,20475,30511,-33145
1721677841.036897,208,49,879,12040,27483,-31448
1721677841.046325,2,51,988,7788,20877,-21009,1000,-18585,34332,,, 157864.900, 40.0102930,-105.2441655, 1598.193,1619.521, 6.559,7.741
1721677841.055716,108,-250,1058,16293,17001,-6510
1721677841.065107,317,-398,1115,26950,17255,-2809
1721677841.074498,662,-348,1312,24500,15417,3885
1721677841.083889,521,-607,1282,15217,9485,15662
1721677841.093280,425,-543,1160,10903,-709,38911
1721677841.102671,127,-159,1013,4349,-8392,57330
1721677841.112062,-132,28,956,-3290,-13817,66666
1721677841.121459,-142,24,1026,-4445,-14350,64303,1452,-18731,34185,84463,38136
1721677841.130850,-13,-181,1060,-1076,-10500,48658
1721677841.140241,247,-284,1053,2678,-6187,32112
1721677841.149632,348,-290,1085,2135,-4314,25471
1721677841.159023,240,-271,1111,-918,-7088,28848
1721677841.168414,110,-199,1112,-3176,-11690,38543
1721677841.177805,170,-250,1141,-4663,-14027,47232
1721677841.187196,182,-212,1114,-5626,-14368,55842
1721677841.196685,-12,-153,1115,-8618,-16704,69291,,,,84467,38136, 157865.000, 40.0102928,-105.2441654, 1598.187,1619.515, 6.530,7.704
1721677841.206076,-341,-96,1179,-13728,-20440,74777
1721677841.215467,-335,-163,1225,-19267,-21342,67208
1721677841.224858,-39,-330,1246,-22513,-16398,53418
1721677841.234249,214,-299,1287,-24780,-11209,47495
1721677841.243640,260,-308,1319,-28280,-12014,42210
1721677841.253031,128,-369,1335,-30441,-17273,38421
1721677841.262422,5,-323,1354,-31885,-22313,42481
1721677841.271758,-134,-230,1380,-33941,-24002,51091,2105,-17883,35192,84462,38132, 157865.100, 40.0102919,-105.2441654, 1598.088,1619.416, 6.506,7.667
1721677841.281149,-352,-42,1408,-35306,-22243,58415
1721677841.290540,-220,-122,1395,-34107,-15803,61136
1721677841.299931,-292,-55,1400,-29750,-4787,58703
1721677841.309322,-351,58,1408,-28892,2380,57085
1721677841.318713,-383,127,1391,-28140,9283,52316
1721677841.328104,-349,139,1349,-25515,16450,45570
1721677841.337495,-214,148,1310,-21621,23406,37607
1721677841.346893,-128,148,1282,-17290,28717,29872,3582,-16632,36322,,, 157865.200, 40.0102915,-105.2441653, 1598.041,1619.369, 6.484,7.632
1721677841.356284,-25,110,1258,-12792,31176,21035
1721677841.365675,110,115,1235,-8128,31955,14008
1721677841.375066,142,92,1202,-3972,30817,10815
1721677841.384457,140,88,1181,-122,27571,8688
1721677841.393848,164,60,1157,2923,24045,6903
1721677841.403239,185,50,1149,5452,20921,4112
1721677841.412630,222,41,1129,7394,18252,1706
1721677841.422058,214,20,1116,9083,15933,-315,3369,-17291,35931,84461,38130
1721677841.431449,223,29,1094,10597,13991,-2109
1721677841.440840,211,2,1068,11778,12818,-2800
1721677841.450231,176,16,1063,12950,11952,-4157
1721677841.459622,183,20,1077,13642,11515,-5767
1721677841.469013,231,-20,1095,14525,11480,-9433
1721677841.478404,220,-22,1112,15619,10823,-13589
1721677841.487795,180,-27,1114,16293,8968,-16188
1721677841.497192,115,-29,1114,17098,6816,-19207,1165,-18261,35156,84462,38125, 157865.300, 40.0102900,-105.2441651, 1597.885,1619.213, 6.459,7.591
1721677841.506583,88,-36,1115,17474,5293,-25717
1721677841.515974,89,-79,1112,17562,4576,-33224
1721677841.525365,107,-140,1154,17002,4068,-42062
1721677841.534756,244,-150,1189,15593,3491,-48143
1721677841.544147,301,-139,1190,13405,2038,-46550
1721677841.553538,321,-135,1168,10824,-1777,-40522
1721677841.562929,364,-85,1128,7709,-6554,-34484
1721677841.572357,377,-39,1075,3999,-11585,-30153,-2563,-18328,35675,84462,38114, 157865.400, 40.0102904,-105.2441650, 1597.962,1619.290, 6.422,7.551
1721677841.581748,351,6,1011,254,-17159,-27659
1721677841.591139,275,5,965,-3552,-22873,-27537
1721677841.600530,231,8,951,-7656,-27677,-31247
1721677841.609921,179,51,970,-12363,-30652,-35910
1721677841.619312,139,93,1000,-16721,-32148,-35639
1721677841.628703,149,117,1027,-19757,-31929,-31824
1721677841.638094,190,137,1026,-21315,-30258,-27624
1721677841.647491,229,132,990,-21875,-28158,-23494,,,,,, 157865.500, 40.0102888,-105.2441647, 1597.819,1619.147, 6.391,7.517
1721677841.656882,264,114,933,-22242,-26460,-21569
1721677841.666273,280,93,863,-23065,-25139,-19889
1721677841.675664,265,90,792,-24911,-24369,-18034
1721677841.685055,195,113,741,-27772,-23765,-15742
1721677841.694446,134,141,715,-31106,-22777,-11760
1721677841.703837,65,177,723,-33932,-20353,-6738
1721677841.713228,31,227,747,-35656,-16713,-2512
1721677841.722625,12,242,738,-35743,-11927,1741,-5456,-17163,37371,84459,38121, 157865.600, 40.0102882,-105.2441648, 1597.643,1618.971, 6.355,7.464
1721677841.732016,-43,198,697,-34370,-6545,5153
1721677841.741407,-117,148,644,-32637,-1033,7341
1721677841.750798,-125,107,599,-32147,4926,6448
1721677841.760189,-74,78,569,-33328,11357,2178
1721677841.769580,2,68,552,-35700,16957,-2468
1721677841.778971,95,62,531,-38473,20632,-6589
1721677841.788362,169,50,506,-40766,21936,-8934
1721677841.797790,243,44,473,-42358,20807,-8042,-6488,-15795,39453,84452,38114
1721677841.807185,228,74,449,-43181,17841,-4507
1721677841.816580,169,69,449,-43155,13413,8
1721677841.825975,186,49,456,-42288,9178,2222
1721677841.835370,177,48,470,-41151,5608,3298
1721677841.844765,150,47,491,-40293,1601,6212
1721677841.854160,148,38,503,-39173,-2792,9310
1721677841.863555,188,35,506,-37861,-6887,10710
1721677841.872955,247,54,504,-36347,-11209,12433,-8270,-14611,41247,84458,38114, 157865.700, 40.0102889,-105.2441655, 1597.754,1619.082, 6.324,7.414
1721677841.882350,292,37,493,-34055,-16232,16441
1721677841.891745,277,21,490,-30966,-21980,23091
1721677841.901140,194,84,503,-27781,-28018,29820
1721677841.910535,147,116,520,-24613,-33058,32786
1721677841.919930,129,157,525,-20685,-36409,31788
1721677841.929325,54,163,534,-16511,-39113,31018
1721677841.938720,-37,122,553,-12626,-41738,32602
1721677841.948120,-57,83,577,-9537,-43199,32532,-10882,-15209,41186,,, 157865.800, 40.0102889,-105.2441659, 1597.842,1619.170, 6.299,7.378
1721677841.957515,-33,63,607,-7813,-43129,29750
1721677841.966910,-103,1,648,-6711,-42368,27562
1721677841.976305,-162,-30,753,-5722,-41003,27361
1721677841.985700,-129,-74,850,-5512,-37144,27693
1721677841.995095,-101,-52,939,-5582,-31439,27168
1721677842.004490,-114,-31,973,-5993,-26014,29881
1721677842.013885,-228,-27,979,-6308,-21280,35297
1721677842.023254,-354,10,974,-7087,-16774,40162,-11944,-15167,41766,84459,38109, 157865.900, 40.0102877,-105.2441658, 1597.708,1619.036, 6.276,7.343
1721677842.032649,-392,79,974,-8540,-10728,41510
1721677842.042044,-437,115,1020,-9861,-2870,35700
1721677842.051439,-367,54,1105,-9966,5713,20833
1721677842.060834,-228,-41,1217,-8890,15312,936
1721677842.070229,-69,-113,1314,-7577,24395,-14919
1721677842.079624,65,-167,1364,-6746,31123,-20204
1721677842.089019,125,-184,1350,-6676,35026,-16608
1721677842.098388,55,-125,1308,-7665,35875,-7604,,,,84461,38105
1721677842.107783,-74,52,1247,-9397,34877,1863
1721677842.117178,-230,257,1185,-10815,33993,6413
1721677842.126573,-391,279,1165,-9458,34475,4576
1721677842.135968,-399,262,1195,-4637,36995,-8392
1721677842.145363,-183,212,1235,1497,41746,-34983
1721677842.154758,45,34,1243,9503,45823,-59010
1721677842.164153,283,-119,1248,18384,45491,-73597
1721677842.173553,471,-210,1248,25734,40083,-69992,-13250,-15081,42126,84463,38105, 157866.000, 40.0102858,-105.2441662, 1597.546,1618.874, 6.255,7.312
1721677842.182944,452,-210,1251,30494,29741,-53874
1721677842.192335,302,-173,1240,33364,15802,-31964
1721677842.201726,139,-75,1249,35202,2047,-14254
1721677842.211117,11,6,1255,36549,-9048,-6318
1721677842.220508,-71,26,1237,38500,-17378,-4760
1721677842.229899,-70,-3,1191,40627,-23468,-9214
1721677842.239290,-64,-98,1132,41808,-27887,-16529
1721677842.248687,-31,-203,1085,41020,-31387,-21919,-16870,-16406,40039,,, 157866.100, 40.0102842,-105.2441662, 1597.456,1618.784, 6.241,7.288
1721677842.258078,17,-281,1049,37704,-33863,-22418
1721677842.267469,11,-277,1046,31929,-35333,-16625
1721677842.276860,-77,-236,1096,24789,-36304,-5425
1721677842.286251,-273,-123,1177,17885,-36085,8312
1721677842.295642,-465,17,1230,12233,-33872,19320
1721677842.305033,-604,136,1255,9004,-28149,24010
1721677842.314424,-631,134,1257,8444,-19137,17955
1721677842.323852,-543,40,1278,9888,-7928,1190,-18817,-16455,39099,84460,38103, 157866.200, 40.0102834,-105.2441670, 1597.441,1618.770, 6.227,7.260
1721677842.333243,-372,-58,1300,11612,3683,-14245
1721677842.342634,-185,-112,1290,12425,13947,-21963
1721677842.352025,-45,-144,1266,12373,21122,-20020
1721677842.361416,20,-126,1264,11752,24745,-12373
1721677842.370807,0,-86,1277,10807,25173,-1838
1721677842.380198,1,30,1281,10308,23835,7586
1721677842.389589,16,-79,1292,10833,22233,13448
1721677842.398986,-102,-88,1298,13274,19871,21910,-19128,-17022,38543,84462,38100
1721677842.408377,-49,-84,1306,14245,16782,21586
1721677842.417768,-35,-134,1313,14692,15041,15496
1721677842.427159,29,-152,1312,15112,12171,11112
1721677842.436550,108,-151,1287,15033,8478,10701
1721677842.445941,133,-188,1275,14569,3351,12127
1721677842.455332,64,-19,2977,13300,-3150,15041
1721677842.464723,316,-472,809,11139,-13344,17911
1721677842.474121,244,-375,761,9643,-20519,10456,-20947,-15856,38739,84459,38098, 157866.300, 40.0102817,-105.2441669, 1597.281,1618.609, 6.208,7.221
1721677842.483512,-156,-292,943,-2231,-25830,11602
1721677842.492903,-187,-114,1010,-14630,-30477,16817
1721677842.502294,-184,-86,1001,-23633,-28447,11401
1721677842.511685,-154,-84,959,-27973,-24352,8286
1721677842.521076,-168,-24,938,-30126,-19863,9782
1721677842.530467,-227,0,938,-31053,-15365,10666
1721677842.539858,-198,15,946,-30073,-10430,9318
1721677842.549285,-75,337,1500,-27763,-4883,8863,,,,,, 157866.400, 40.0102814,-105.2441667, 1597.222,1618.550, 6.192,7.186
1721677842.558676,-149,-8,1194,-23511,-622,11226
1721677842.568067,-29,56,719,-10605,-1514,13361
1721677842.577458,-62,161,1268,-4900,-718,10867
1721677842.586849,-402,72,1051,-2038,533,19486
1721677842.596240,-278,200,909,2949,350,23905
1721677842.605631,-225,91,1258,5872,7122,17115
1721677842.615022,-212,33,857,10588,12836,11698
1721677842.624420,-50,-47,1172,12032,15881,9152,-21319,-15539,38824,84461,38093, 157866.500, 40.0102789,-105.2441666, 1596.849,1618.177, 6.163,7.119
1721677842.633811,-75,-84,1001,12915,20046,5092
1721677842.643202,11,-81,1008,11752,20125,6833
1721677842.652593,65,-54,1101,9765,20553,7980
1721677842.661984,1,-23,994,7849,19451,7901
1721677842.671375,14,-6,1105,6379,17281,9117
1721677842.680766,28,-35,981,6082,17018,9765
1721677842.690157,77,-93,1048,6222,17036,10946
1721677842.699584,123,-137,1074,6003,16983,13921,-20965,-15447,39093,84462,38091
1721677842.708975,162,-155,1044,5023,16065,20291
1721677842.718366,201,-166,1046,3404,14446,27833
1721677842.727757,217,-141,1013,1400,12346,32786
1721677842.737148,219,-39,1068,-638,9686,38377
1721677842.746539,138,60,1018,-2213,6991,43653
1721677842.755930,82,-65,1052,-2178,4366,39208
1721677842.765321,113,-77,1049,-1120,2975,36662
1721677842.774719,134,-113,1054,-1566,2406,37196,-20526,-15484,39166,84460,38089, 157866.600, 40.0102774,-105.2441663, 1596.644,1617.972, 6.134,7.054
1721677842.784110,133,-139,1065,-2616,1470,32838
1721677842.793501,152,-155,1018,-4086,245,29776
1721677842.802892,175,-128,1055,-5976,-954,28166
1721677842.812283,171,-83,1027,-8041,-2380,27868
1721677842.821674,97,-43,1046,-9563,-4165,29417
1721677842.831065,5,34,1051,-10351,-5784,31631
1721677842.840456,-44,89,1051,-10430,-6388,32733
1721677842.849853,-68,118,1067,-9423,-5775,32410,-20758,-15417,39245,,, 157866.700, 40.0102762,-105.2441660, 1596.517,1617.845, 6.096,6.967
1721677842.859244,-74,142,1038,-7525,-4393,31097
1721677842.868635,-67,226,1058,-5302,-2652,28665
1721677842.878026,-93,138,1034,-2546,-928,23773
1721677842.887417,-54,63,1064,1050,621,14533
1721677842.896808,20,39,1032,3544,2397,10666
1721677842.906199,68,-16,1055,4900,3718,8277
1721677842.915590,107,-64,1051,5749,4007,5801
1721677842.925018,129,-81,1048,5810,3666,6063,,,,84463,38087, 157866.800, 40.0102761,-105.2441660, 1596.513,1617.841, 6.061,6.884
1721677842.934409,127,-38,1047,5137,2607,9266
1721677842.943800,98,29,1043,4384,1365,13063
1721677842.953191,68,33,1058,4253,166,16607
1721677842.962582,69,9,1041,5040,-604,18261
1721677842.971973,91,-30,1049,5828,-919,17491
1721677842.981364,135,-76,1039,6117,-1295,14717
1721677842.990755,161,-131,1040,5810,-2092,14131
1721677843.000152,137,-155,1053,4927,-3492,15977,-21240,-15423,38916,84463,38082
1721677843.009543,98,-129,1037,3220,-5390,18847
1721677843.018934,69,-109,1055,1278,-6974,20571
1721677843.028325,48,-72,1038,-280,-7867,21525
1721677843.037716,19,-12,1047,-1417,-8400,23301
1721677843.047107,-10,17,1050,-1916,-8558,22863
1721677843.056498,-36,22,1050,-1732,-8322,20098
1721677843.065889,-31,7,1046,-910,-7657,16590
1721677843.075317,-9,-32,1052,-52,-6589,13413,-21923,-15136,38635,84465,38084, 157866.900, 40.0102752,-105.2441655, 1596.411,1617.739, 6.002,6.744
1721677843.084708,-7,-73,1056,385,-5732,10981
1721677843.094099,-11,-83,1050,324,-5137,10517
1721677843.103490,-21,-59,1048,-227,-4743,14385
1721677843.112881,-48,-32,1045,-910,-4165,18147
1721677843.122272,-93,-28,1049,-1312,-3430,18716
1721677843.131663,-128,-21,1049,-1400,-2197,15767
1721677843.141054,-153,-2,1055,-1382,-245,11427
1721677843.150451,-150,6,1052,-1146,2240,8951,-22320,-14782,38659,,, 157867.000, 40.0102751,-105.2441650, 1596.431,1617.759, 5.944,6.608
1721677843.159846,-100,-5,1051,-665,5110,6895
1721677843.169241,-32,-14,1053,-70,8032,5425
1721677843.178636,31,-22,1047,595,9983,6413
1721677843.188031,71,-29,1045,963,11086,8750
1721677843.197426,83,-47,1050,1304,11261,10491
1721677843.206821,80,-69,1047,1470,10841,10648
1721677843.216216,81,-87,1048,1427,10281,10491
1721677843.225616,102,-95,1045,1050,9730,10307,-22393,-14434,38897,84466,38080, 157867.100, 40.0102747,-105.2441649, 1596.433,1617.761, 5.931,6.578
1721677843.235011,127,-112,1044,298,9108,9240
1721677843.244406,140,-139,1046,-542,8146,9082
1721677843.253801,155,-158,1041,-1601,6790,10981
1721677843.263196,159,-170,1038,-2957,5171,15032
1721677843.272591,132,-148,1036,-4567,3377,20072
1721677843.281986,79,-87,1043,-6440,1522,25077
1721677843.291381,41,-27,1045,-7892,157,29155
1721677843.300781,35,-6,1050,-8557,-385,32182,-22149,-14343,39154,84464,38078
1721677843.310176,55,-13,1052,-8540,-263,31150
1721677843.319571,86,-16,1050,-8295,-27,27326
1721677843.328966,123,-10,1042,-8120,-27,24281
1721677843.338361,147,11,1048,-7945,-464,23520
1721677843.347756,136,34,1044,-7621,-1488,24036
1721677843.357151,92,59,1043,-6982,-2870,25217
1721677843.366546,32,88,1046,-5915,-3990,26880
1721677843.375915,-13,111,1045,-4410,-4489,27965,,,,84461,38075, 157867.200, 40.0102736,-105.2441646, 1596.319,1617.647, 5.901,6.509
1721677843.385310,-3,126,1050,-2581,-4043,27912
1721677843.394705,12,100,1051,-288,-2905,28630
1721677843.404100,97,-227,955,2258,-2048,30598
1721677843.413495,83,-51,1206,3947,-1444,30826
1721677843.422890,14,-135,940,1523,-1952,33705
1721677843.432285,122,-107,1129,517,-2179,28113
1721677843.441680,183,25,993,-805,-1838,27982
1721677843.451080,167,19,1037,-1548,-3002,37056,-21777,-14855,38983,84468,38075, 157867.300, 40.0102783,-105.2441654, 1596.888,1618.216, 5.849,6.420
1721677843.460475,93,-71,1071,-341,-5102,48273
1721677843.469870,29,-87,1005,875,-7088,61748
1721677843.479265,2,-69,1073,718,-8024,78618
1721677843.488660,-83,-72,1048,324,-7980,89950
1721677843.498055,-172,-70,1075,-630,-7315,80325
1721677843.507450,-210,-127,1050,-1610,-5145,59421
1721677843.516845,-173,-235,1068,-2686,-1663,35420
1721677843.526367,-117,-241,1043,-4768,2275,15828,-20489,-15679,39080,,, 157867.400, 40.0102830,-105.2441662, 1597.489,1618.817, 5.779,6.283
1721677843.535762,-63,-65,1055,-8050,5591,12608
1721677843.545157,-111,391,1073,-10937,8006,19958
1721677843.554552,-1,364,984,-10911,9738,26687
1721677843.563947,136,55,1092,-4375,12101,28603
1721677843.573342,117,112,1060,1645,12766,38587
1721677843.582737,97,29,982,4060,11567,56253
1721677843.592132,91,-116,1111,6589,10500,66045
1721677843.601348,75,-107,997,7560,9843,74961,-17547,-17248,39215,84461,38073
1721677843.610743,132,-167,1053,6633,9205,81847
1721677843.620138,166,-175,1079,5399,8785,86030
1721677843.629533,141,-83,994,3430,7455,92566
1721677843.638928,101,11,1083,1707,5906,101298
1721677843.648323,67,115,1035,1103,4733,105096
1721677843.657718,54,116,1030,1820,4077,100791
1721677843.667113,107,-5,1071,3833,3981,94053
1721677843.676513,143,-50,1032,5697,3998,86170,-15173,-18505,39013,84461,38073, 157867.500, 40.0102864,-105.2441668, 1597.886,1619.214, 5.733,6.205
1721677843.685908,161,-65,1058,5845,3307,75363
1721677843.695303,166,-70,1019,5119,2100,62300
1721677843.704698,149,-25,1045,4069,630,49000
1721677843.714093,157,12,1055,3019,-727,34028
1721677843.723488,168,-11,1038,2302,-1645,10386
1721677843.732883,165,1,1057,1838,-2582,-15295
1721677843.742278,152,15,1018,1252,-3649,-34090
1721677843.751647,433,20,1022,1365,-4647,-41169,-17401,-18139,38433,84460,38069, 157867.600, 40.0102901,-105.2441676, 1598.282,1619.610, 5.687,6.127
1721677843.761042,427,-6,1042,2459,-6257,-30520
1721677843.770437,418,2,1033,4209,-11165,-7823
1721677843.779832,267,-2,1050,5233,-16503,3631
1721677843.789227,60,-118,1035,5548,-21272,-6738
1721677843.798622,7,-166,1035,5705,-23879,-17282
1721677843.808017,-291,86,1040,5145,-24229,-12032
1721677843.817412,-340,-23,1087,3632,-23748,-1540
1721677843.826934,-243,-145,1054,5854,-19075,-4332,,,,,, 157867.700, 40.0102935,-105.2441680, 1598.571,1619.899, 5.654,6.084
1721677843.836325,-113,-47,1042,7315,-13712,9677
1721677843.845716,-37,-53,1061,6589,-10203,25795
1721677843.855107,-44,-43,1048,6598,-8252,18340
1721677843.864498,-142,-113,1031,6642,-7132,13921
1721677843.873889,-137,-178,1038,6563,-5837,17885
1721677843.883280,-161,-159,1105,5530,-3413,31211
1721677843.892671,88,-106,1014,3378,-499,37310
1721677843.901977,305,-101,1034,1304,2327,19993,-17443,-18530,37945,84460,38066
1721677843.911368,260,-92,1038,-61,1898,12538
1721677843.920759,164,-42,1061,-927,-1680,16843
1721677843.930150,143,25,1048,-1505,-4953,17990
1721677843.939541,206,13,1009,-1216,-6764,20370
1721677843.948932,120,5,1058,0,-8462,24246
1721677843.958323,-40,-151,1067,1287,-10999,30660
1721677843.967714,11,-145,1050,2118,-12049,29610
1721677843.977111,37,-110,1001,1348,-11052,25138,-17333,-18945,37683,84461,38064, 157867.800, 40.0102966,-105.2441679, 1598.809,1620.137, 5.621,6.041
1721677843.986502,104,-118,1081,0,-10868,23301
1721677843.995893,161,-216,1008,-385,-11095,27116
1721677844.005284,143,-330,1044,-1260,-12355,28008
1721677844.014675,133,-315,1042,-3351,-14368,30467
1721677844.024066,70,-176,1037,-7105,-16485,38692
1721677844.033457,-22,-91,1076,-10596,-18454,49997
1721677844.042848,-106,-58,1017,-12136,-19355,54915
1721677844.052276,-102,62,1045,-12372,-18892,54013,-16882,-19195,37677,84458,38060, 157867.900, 40.0102997,-105.2441688, 1599.225,1620.553, 5.583,5.995
1721677844.061671,-127,133,1061,-11882,-17378,48833
1721677844.071066,-157,94,1044,-9896,-15453,34501
1721677844.080461,-72,-67,1053,-6860,-13204,20063
1721677844.089856,-9,-38,1037,-4777,-10850,13518
1721677844.099251,2,-25,1063,-4987,-9748,16213
1721677844.108646,-58,-33,1056,-5110,-9547,18375
1721677844.118041,-146,-31,1044,-4996,-9547,20825
1721677844.127685,-196,7,1055,-5188,-8532,22601,-16851,-19238,37451,,, 157868.000, 40.0103035,-105.2441698, 1599.610,1620.938, 5.545,5.946
1721677844.137076,-228,66,1049,-5127,-6335,21822
1721677844.146467,-184,24,1055,-4313,-3290,17237
1721677844.155858,-73,20,1057,-2388,78,13037
1721677844.165249,-74,5,1070,-140,2677,12337
1721677844.174640,-117,-8,1069,1173,3692,10622
1721677844.184031,-113,-33,1049,2214,4672,7857
1721677844.193422,-42,-44,1043,3212,6256,4383
1721677844.202575,-90,-177,1049,3990,7787,-2372,-16131,-19366,37719,84458,38060
1721677844.211966,-20,-150,1149,4174,8566,-5574
1721677844.221357,-27,-149,1290,3133,10500,1951
1721677844.230748,-109,-246,1393,2870,12880,3097
1721677844.240139,-132,-195,1471,2827,15715,6562
1721677844.249530,-175,-51,1528,1269,19915,15408
1721677844.258921,-255,86,1556,385,24430,23870
1721677844.268312,-297,172,1570,1882,29417,26696
1721677844.277709,-352,258,1581,5137,35175,24316,,,,84459,38062, 157868.100, 40.0103072,-105.2441704, 1600.104,1621.432, 5.508,5.898
1721677844.287100,-411,292,1598,9582,41081,18453
1721677844.296491,-401,309,1604,15112,47381,9528
1721677844.305882,-381,321,1585,21272,54048,1146
1721677844.315273,-356,334,1540,27677,60252,-6143
1721677844.324664,-299,306,1477,34248,65905,-13449
1721677844.334055,-243,279,1418,40845,70691,-21744
1721677844.343446,-158,199,1369,46778,74357,-32410
1721677844.352844,-100,148,1341,51862,76755,-41817,-14337,-20178,37518,84469,38060, 157868.200, 40.0103105,-105.2441710, 1600.521,1621.849, 5.473,5.857
1721677844.362235,-47,47,1329,55589,77682,-49928
1721677844.371626,48,-83,1322,58590,77612,-55099
1721677844.381017,28,-81,1328,59877,76536,-56622
1721677844.390408,-22,-75,1325,58862,74033,-55939
1721677844.399799,-36,-136,1315,57785,72091,-54898
1721677844.409190,-15,-221,1292,56482,71050,-57243
1721677844.418581,19,-290,1264,53953,70070,-60305
1721677844.428008,88,-361,1229,49805,68398,-62790,-14477,-20782,36572,,, 157868.300, 40.0103126,-105.2441709, 1600.977,1622.306, 5.443,5.826
1721677844.437399,169,-418,1198,44179,65887,-63910
1721677844.446790,211,-458,1173,37223,61853,-62790
1721677844.456181,235,-454,1155,29295,56437,-58188
1721677844.465572,186,-402,1142,20607,50321,-50698
1721677844.474963,100,-354,1130,12154,44266,-42587
1721677844.484354,41,-317,1123,4585,39532,-37678
1721677844.493745,10,-296,1110,-2196,36750,-37275
1721677844.503173,-6,-286,1086,-8303,35341,-39962,-15161,-18798,38140,84458,38048
1721677844.512568,22,-282,1048,-14192,34623,-43672
1721677844.521963,101,-292,992,-19941,34352,-47793
1721677844.531358,174,-303,925,-25768,33451,-52404
1721677844.540753,247,-299,855,-32060,30957,-55152
1721677844.550148,350,-270,791,-38587,27002,-55257
1721677844.559543,435,-266,731,-45141,21612,-52063
1721677844.568938,436,-276,685,-51213,14463,-46113
1721677844.578338,418,-288,647,-57522,6090,-41930,-17419,-14117,41229,84457,38053, 157868.400, 40.0103150,-105.2441698, 1601.403,1622.731, 5.414,5.795
1721677844.587733,459,-286,606,-64443,-2039,-39988
1721677844.597128,496,-269,570,-71706,-9634,-38002
1721677844.606523,478,-260,552,-78898,-17763,-34125
1721677844.615918,432,-211,549,-85881,-26277,-28832
1721677844.625313,387,-155,541,-92513,-34169,-24614
1721677844.634708,334,-121,531,-98061,-40697,-22742
1721677844.644103,262,-112,525,-102445,-46025,-22558
1721677844.653472,238,-103,529,-105910,-49867,-23100,,,,84458,38048, 157868.500, 40.0103182,-105.2441707, 1601.857,1623.185, 5.388,5.767
1721677844.662867,256,-101,546,-108841,-52203,-23214
1721677844.672262,294,-89,562,-111335,-53804,-24002
1721677844.681657,278,-62,583,-113426,-55703,-25445
1721677844.691052,194,-41,615,-114852,-58293,-24054
1721677844.700447,110,-3,657,-115255,-60813,-18340
1721677844.709842,88,56,697,-114756,-61968,-13423
1721677844.719237,98,118,723,-113330,-61793,-12565
1721677844.728607,95,143,747,-110302,-61180,-13712,-21435,-7269,43975,,, 157868.600, 40.0103203,-105.2441706, 1602.114,1623.442, 5.363,5.740
1721677844.738002,36,174,789,-105752,-60997,-14447
1721677844.747397,-66,208,845,-100283,-60900,-13318
1721677844.756792,-136,240,901,-93808,-60025,-10290
1721677844.766187,-207,209,954,-86502,-57462,-9809
1721677844.775582,-184,188,1000,-78767,-53568,-13318
1721677844.784977,-124,232,1021,-71470,-48388,-12679
1721677844.794372,-116,223,1025,-64478,-43470,-11769
1721677844.803771,-123,169,1015,-56953,-39533,-12285,-24768,-2014,44464,84458,38048
1721677844.813162,-85,152,991,-49988,-35727,-10492
1721677844.822553,-32,139,964,-44476,-31763,-9774
1721677844.831944,66,86,950,-39821,-28342,-9205
1721677844.841335,170,52,953,-36023,-25953,-7578
1721677844.850726,208,20,967,-33433,-25507,-5032
1721677844.860117,180,25,981,-31832,-27143,1093
1721677844.869508,125,73,984,-30922,-29462,10263
1721677844.878906,-43,97,1000,-29968,-31369,18068,-26275,299,44036,84457,38042, 157868.700, 40.0103215,-105.2441702, 1602.320,1623.648, 5.331,5.706
1721677844.888297,-233,118,1050,-28306,-31877,22321
1721677844.897688,-268,176,1095,-26232,-29059,22933
1721677844.907079,-237,198,1100,-23441,-22654,18427
1721677844.916470,-198,193,1083,-19582,-15243,10771
1721677844.925861,-164,149,1063,-14945,-8549,3788
1721677844.935252,-79,112,1045,-10106,-2678,78
1721677844.944643,50,75,1029,-5880,2283,-175
1721677844.954070,115,39,1027,-2117,5355,3640,-26147,939,43994,84467,38042, 157868.800, 40.0103244,-105.2441696, 1602.552,1623.880, 5.301,5.668
1721677844.963461,186,39,1024,1068,5897,8741
1721677844.972852,224,63,1007,3894,4926,15155
1721677844.982243,235,77,987,6685,2590,20825
1721677844.991634,232,80,970,9643,-499,24456
1721677845.001025,185,98,963,12670,-3815,26958
1721677845.010416,104,124,964,15698,-6983,29977
1721677845.019807,33,135,968,18997,-9205,32900
1721677845.029205,35,140,966,22672,-9722,33267,-26043,-762,43041,,, 157868.900, 40.0103250,-105.2441688, 1602.418,1623.746, 5.293,5.652
1721677845.038600,52,126,962,26320,-9030,30432
1721677845.047995,65,108,957,30074,-8120,28148
1721677845.057390,78,66,952,33565,-7490,28192
1721677845.066785,107,42,952,36383,-7219,29951
1721677845.076180,115,80,947,38360,-7184,34072
1721677845.085575,107,96,938,39804,-7604,37677
1721677845.094970,89,104,933,41589,-7963,38465
1721677845.104370,53,87,935,43357,-8155,36015,,,,84458,38035
1721677845.113765,57,75,945,45019,-7954,33582
1721677845.123160,111,87,945,46069,-7035,31885
1721677845.132555,165,88,941,46673,-6213,28988
1721677845.141950,222,57,944,47364,-6239,26556
1721677845.151345,283,47,954,47872,-7202,25445
1721677845.160740,299,44,972,47688,-9162,25856
1721677845.170135,302,60,988,47347,-12049,28682
1721677845.179534,308,94,987,46857,-15094,30940,-26031,-3466,41430,84454,38037, 157869.000, 40.0103251,-105.2441672, 1602.285,1623.613, 5.287,5.642
1721677845.188929,268,80,990,46664,-18025,30703
1721677845.198324,168,65,1024,47145,-20729,30563
1721677845.207719,102,94,1077,47583,-22400,32935
1721677845.217114,63,120,1116,47933,-21954,34238
1721677845.226509,19,91,1126,48869,-20029,31981
1721677845.235904,-25,29,1127,50208,-17334,28218
1721677845.245299,-50,-7,1132,51013,-13703,25786
1721677845.254669,-70,-22,1153,50742,-9328,26328,-26287,-6286,39398,84468,38033, 157869.100, 40.0103281,-105.2441670, 1602.536,1623.864, 5.262,5.610
1721677845.264064,-93,-25,1176,49902,-4638,29067
1721677845.273459,-79,-50,1186,49000,376,30572
1721677845.282854,-44,-85,1178,48082,5591,30205
1721677845.292249,6,-127,1157,46874,10360,28420
1721677845.301644,42,-159,1134,45002,14061,27545
1721677845.311039,68,-166,1117,42342,16362,28420
1721677845.320434,113,-169,1100,38938,17692,29400
1721677845.329833,147,-189,1083,35324,18138,29697,-24938,-8453,38720,,, 157869.200, 40.0103307,-105.2441675, 1602.673,1624.001, 5.236,5.578
1721677845.339228,180,-195,1070,31439,17535,30161
1721677845.348623,201,-172,1057,27047,15916,31220
1721677845.358018,208,-155,1051,22444,13492,32243
1721677845.367413,207,-133,1049,18157,10648,32838
1721677845.376808,183,-111,1055,14210,7595,32803
1721677845.386203,192,-101,1067,10640,4655,31736
1721677845.395598,213,-112,1082,7552,2178,29137
1721677845.404968,215,-126,1103,4787,-342,25978,-24530,-9143,38482,84452,38028
1721677845.414359,172,-123,1128,2057,-3124,24736
1721677845.423750,141,-112,1151,-542,-5679,24456
1721677845.433141,130,-86,1163,-2887,-7403,23852
1721677845.442532,111,-75,1157,-4751,-8295,22522
1721677845.451923,86,-71,1137,-6160,-8689,20107
1721677845.461314,74,-67,1104,-7297,-8523,17368
1721677845.470705,31,-92,1076,-8426,-7849,14603
1721677845.480102,41,-102,1069,-9712,-6668,11611,-24731,-8245,38922,84463,38028, 157869.300, 40.0103297,-105.2441667, 1602.493,1623.821, 5.232,5.566
1721677845.489493,83,-82,1069,-11488,-4515,9240
1721677845.498884,92,-80,1073,-13413,-2590,7323
1721677845.508275,104,-68,1073,-14752,-1409,6352
1721677845.517666,120,-54,1065,-15855,-429,5547
1721677845.527057,131,-34,1051,-16555,192,5127
1721677845.536448,137,-10,1036,-16870,367,5258
1721677845.545839,115,4,1018,-16878,113,5267
1721677845.555267,85,14,1001,-16423,-377,5153,,,,84460,38024, 157869.400, 40.0103310,-105.2441662, 1602.589,1623.917, 5.214,5.546
1721677845.564658,38,20,988,-15776,-499,5171
1721677845.574049,14,22,979,-15085,-123,4725
1721677845.583440,45,23,976,-14411,1251,3088
1721677845.592831,95,7,976,-13667,3097,131
1721677845.602222,117,-13,985,-12836,4305,-2520
1721677845.611613,137,-10,997,-12101,4620,-3492
1721677845.621004,152,-3,1002,-11550,4418,-2932
1721677845.630401,163,-7,1003,-10858,3815,-2004,-24969,-7312,39593,,, 157869.500, 40.0103319,-105.2441661, 1602.628,1623.956, 5.195,5.526
1721677845.639792,162,-25,1010,-9983,2852,-1243
1721677845.649183,153,-30,1018,-9152,1732,831
1721677845.658574,129,-18,1018,-8820,568,4226
1721677845.667965,96,-21,1024,-8610,-175,6930
1721677845.677356,78,-28,1035,-8426,-272,7717
1721677845.686747,58,-17,1057,-8522,358,7778
1721677845.696138,34,-12,1076,-8715,1592,8487
1721677845.705566,-1,0,1093,-8653,3272,9756,-24993,-6701,40155,84457,38030
1721677845.714961,11,23,1102,-8443,5460,10683
1721677845.724356,29,29,1101,-7822,8286,10631
1721677845.733751,40,28,1098,-6895,10876,10403
1721677845.743146,61,43,1090,-6090,13063,10990
1721677845.752541,49,36,1079,-5337,14822,12223
1721677845.761936,32,40,1066,-4725,16178,13396
1721677845.771331,22,43,1053,-4427,17613,14332
1721677845.780822,-27,23,1050,-4296,19223,14778,-23901,-6500,41119,84458,38024, 157869.600, 40.0103330,-105.2441660, 1602.657,1623.985, 5.176,5.507
1721677845.790217,-59,17,1062,-4340,20886,15111
1721677845.799612,-79,18,1086,-4646,23301,16038
1721677845.809007,-66,3,1108,-4996,26285,16082
1721677845.818402,-10,-15,1110,-5048,29540,14332
1721677845.827797,48,-40,1094,-5206,32383,10263
1721677845.837192,94,-61,1072,-5503,34020,7105
1721677845.846587,151,-87,1054,-6195,34396,6037
1721677845.855956,206,-64,1042,-7271,33608,8067,-22296,-6115,42651,84462,38024, 157869.700, 40.0103334,-105.2441658, 1602.718,1624.046, 5.159,5.488
1721677845.865351,189,-20,1031,-8793,31491,13011
1721677845.874746,121,4,1018,-9913,28367,17648
1721677845.884141,106,17,1009,-10307,25620,19993
1721677845.893536,95,29,1004,-10360,23878,19626
1721677845.902931,97,40,1004,-10272,22566,17640
1721677845.912326,117,40,1005,-10018,21481,15382
1721677845.921721,154,29,1015,-9423,20265,12696
1721677845.931121,194,39,1023,-8706,18532,11138,-21643,-5670,43365,,, 157869.800, 40.0103343,-105.2441659, 1602.739,1624.067, 5.141,5.470
1721677845.940516,192,35,1030,-7971,16038,11025
1721677845.949911,200,46,1031,-7026,12967,11620
1721677845.959306,196,53,1033,-6046,9791,11357
1721677845.968701,197,61,1027,-5013,6676,10990
1721677845.978096,198,63,1011,-3981,3771,10246
1721677845.987491,200,62,993,-3141,945,8741
1721677845.996886,187,69,985,-2633,-1698,7647
1721677846.006256,154,69,980,-2441,-4279,6440,,,,84451,38024
1721677846.015651,91,73,991,-2353,-6537,6046
1721677846.025046,69,93,1009,-2143,-7954,5687
1721677846.034441,61,104,1023,-2021,-8077,4672
1721677846.043836,72,92,1026,-1505,-7630,2905
1721677846.053231,80,69,1026,-630,-6930,752
1721677846.062626,92,51,1025,0,-6370,-840
1721677846.072021,105,43,1026,202,-6073,-1505
1721677846.081420,112,25,1023,158,-5977,-1995,-22308,-5090,43505,84466,38024, 157869.900, 40.0103345,-105.2441662, 1602.857,1624.185, 5.123,5.453
1721677846.090811,137,23,1021,-122,-6204,-2617
1721677846.100202,165,25,1019,-647,-6607,-3124
1721677846.109593,171,23,1021,-1172,-7552,-3308
1721677846.118984,165,37,1028,-1522,-8987,-2319
1721677846.128375,147,60,1034,-1863,-10544,-272
1721677846.137766,133,74,1032,-1820,-11935,1487
1721677846.147157,103,73,1029,-1347,-13082,2126
1721677846.156555,62,65,1030,-743,-13817,2047,-23126,-4663,43383,84456,38017, 157870.000, 40.0103361,-105.2441662, 1602.930,1624.258, 5.102,5.432
1721677846.165946,63,72,1037,-227,-13948,1557
1721677846.175337,80,83,1044,245,-13187,735
1721677846.184728,92,68,1051,753,-12259,-788
1721677846.194119,98,60,1055,1558,-11612,-1838
1721677846.203510,101,59,1057,2179,-11157,-1908
1721677846.212901,98,65,1053,2730,-10780,-1147
1721677846.222292,86,71,1054,3264,-10413,-342
1721677846.231689,74,76,1047,3763,-9949,245,-23895,-4479,43212,,, 157870.100, 40.0103363,-105.2441661, 1602.955,1624.283, 5.075,5.408
1721677846.241080,52,82,1040,4297,-9144,988
1721677846.250471,41,83,1039,4874,-8050,1688
1721677846.259862,45,94,1036,5347,-6440,1960
1721677846.269253,48,94,1033,5732,-4874,1592
1721677846.278644,62,92,1034,6117,-3474,962
1721677846.288035,76,97,1040,6475,-2100,218
1721677846.297426,83,97,1048,6887,-1164,-447
1721677846.306854,110,115,1043,7438,-517,-744,-24224,-4516,43066,84465,38017
1721677846.316245,130,128,1030,7989,-62,-1322
1721677846.325636,133,119,1017,8785,-105,-2267
1721677846.335027,121,131,1008,9678,-543,-3080
1721677846.344418,115,158,1004,10413,-1112,-3168
1721677846.353809,97,162,1004,11297,-1602,-3500
1721677846.363200,84,161,1009,12714,-2004,-4428
1721677846.372591,76,164,1014,14184,-2162,-5242
1721677846.381988,46,149,1019,15707,-2144,-5924,,,,84460,38014, 157870.200, 40.0103371,-105.2441662, 1603.035,1624.363, 5.049,5.386
1721677846.391379,52,151,1022,17255,-1908,-6808
1721677846.400770,78,152,1014,18542,-1348,-8602
1721677846.410161,106,142,1000,19872,-753,-11104
1721677846.419552,113,127,990,20895,-700,-13230
1721677846.428943,116,135,985,21630,-1234,-14350
1721677846.438334,114,152,986,22024,-2065,-14508
1721677846.447725,108,162,988,22497,-2975,-14727
1721677846.457183,97,154,989,23170,-3868,-15724,-24981,-4840,42614,84459,38010, 157870.300, 40.0103357,-105.2441658, 1602.801,1624.129, 5.040,5.375
1721677846.466578,78,162,990,23949,-4699,-16722
1721677846.475973,65,168,986,24570,-5434,-17492
1721677846.485368,32,169,979,25218,-5749,-18752
1721677846.494763,9,165,970,25822,-5845,-20957
1721677846.504158,6,154,969,26382,-5373,-23652
1721677846.513553,28,150,978,26793,-4533,-26215
1721677846.522948,49,155,991,26985,-3684,-28070
