;Title, http://www.gcdataconcepts.com, LSM6DSM, BMP384, GPS
;Version, 2585, Build date, Feb  9 2024,  SN:CCDC20234ECBE41
;Start_time, 2024-07-22, 19:03:44.266
;Uptime, 5,sec,  Vbat, 4086, mv, EOL, 3500, mv
;Deadband, 0, counts
;DeadbandTimeout, 0.000,sec
;BMP384, SI, 0.100,sec, Units, Pa, mdegC
;Alt Trigger disabled
;LSM6DSM, SR,104,Hz, Units, mG, mdps, fullscale gyro 250dps, accel 4g
;Magnetometer, SR,10,Hz, Units, nT, Temperature, 30,degC
;CAM_M8 Gps, SR,10,Hz
;Gps Sats, TOW, 155042000, ver, 1, numSat, 24
;, gnssId, svId, cno, elev, azmith, prRes, flags,inUse
;, GPS, 005, 00, 05, 066, 0, 0x00001911
;, GPS, 010, 31, 33, 261, 0, 0x00001914
;, GPS, 013, 00, 20, 043, 0, 0x00001911
;, GPS, 015, 00, 49, 060, 0, 0x00001911
;, GPS, 016, 38, 11, 280, 0, 0x00001914
;, GPS, 018, 00, 75, 061, 0, 0x00001911
;, GPS, 023, 00, 65, 290, 0, 0x00001911
;, GPS, 024, 00, 15, 122, 0, 0x00001211
;Time, Ax, Ay, Az, Gx, Gy, Gz, Mx, My, Mz, P, T, TOW, Lat,Lon, Height(m), MSL(m), hdop(m), vdop(m)
1721675024.328856,-87,29,1001,2835,-8120,-3719,-9991,-39251,66485,84568,33972
1721675024.338152,-104,22,1003,2748,-5950,-569
1721675024.347448,-110,21,1001,2337,-5452,393
1721675024.356744,-105,20,997,1820,-4577,1233
1721675024.366040,-92,11,997,1374,-3579,1890
1721675024.375336,-87,8,998,972,-2730,2485
1721675024.384632,-79,0,1001,455,-2100,2870
1721675024.393928,-79,-1,1002,-218,-1602,2817
1721675024.784668,-78,4,1001,-980,-1322,2493,-9698,-39190,66503,84560,33972
1721675024.793964,-78,6,1002,-1793,-1304,2065
1721675024.803260,-82,15,1002,-2581,-1269,1846
1721675024.812556,-81,20,1007,-3246,-1260,2047
1721675024.821852,-87,21,1012,-3771,-1068,2633
1721675024.831148,-102,29,1016,-4191,-595,3631
1721675024.840444,-102,33,1022,-4567,131,4567
1721675024.849740,-102,39,1022,-4690,1251,5258
1721675024.859039,-109,39,1019,-4681,2380,5985,,,,84561,33985
1721675024.868335,-115,39,1017,-4593,3552,6256
1721675024.877631,-108,45,1013,-4357,4593,5696
1721675024.886927,-90,60,1017,-4156,5582,4235
1721675024.896223,-82,66,1019,-3876,6597,2835
1721675024.905519,-84,70,1020,-3307,7341,2555
1721675024.914815,-76,74,1019,-2625,8032,2870
1721675024.924111,-59,77,1014,-1872,8828,3167
1721675024.933411,-45,81,1011,-1085,9397,3508,-8972,-39141,66748,84567,33976
1721675024.942707,-29,81,1012,-271,9563,3640
1721675024.952003,-26,75,1017,499,9450,3491
1721675024.961299,-21,74,1023,1287,9065,3123
1721675024.970595,-8,67,1022,1987,8557,2870
1721675024.979891,-4,61,1017,2617,7980,2563
1721675024.989187,-9,52,1014,3133,7140,2590
1721675024.998483,-11,40,1016,3527,6168,2213
1721675025.007782,-21,34,1019,3684,5285,1540,-8312,-39306,66735,,, 155048.000, 40.0103028,-105.2440968, 1586.234,1607.562, 6278.390,4439.492
1721675025.017078,-28,25,1020,3702,4655,1198
1721675025.026374,-15,18,1019,3562,4261,1093
1721675025.035670,5,21,1021,3264,4068,1470
1721675025.044966,12,17,1023,2835,3885,2152
1721675025.054262,20,13,1026,2520,3465,2870
1721675025.063558,29,9,1030,2013,3071,3316
1721675025.072854,38,10,1030,1444,2607,3377
1721675025.082154,47,11,1026,902,1995,3368,-7861,-39544,66723,84568,33979
1721675025.091450,47,13,1024,184,1268,3465
1721675025.100746,44,17,1025,-393,393,3631
1721675025.110042,43,20,1024,-927,-517,3718
1721675025.119338,39,26,1023,-1408,-1182,3823
1721675025.128634,39,23,1023,-1837,-1733,4130
1721675025.137930,38,25,1020,-2143,-2153,4261
1721675025.147226,22,31,1020,-2520,-2590,3981
1721675025.156525,22,36,1017,-2843,-2888,3605,-7672,-39434,66845,84566,33992, 155048.100, 40.0103028,-105.2440968, 1586.234,1607.562, 6278.400,4439.500
1721675025.165821,10,47,1012,-3071,-3054,3360
1721675025.175117,2,53,1008,-3255,-3308,3290
1721675025.184413,5,56,1006,-3281,-3360,3395
1721675025.193709,1,58,1006,-3193,-3352,3815
1721675025.203005,0,55,1008,-3010,-3360,4401
1721675025.212301,5,50,1008,-2800,-3177,4821
1721675025.221597,3,40,1008,-2467,-3072,4795
1721675025.230896,2,36,1007,-2345,-3115,4506,,,,84557,33985, 155048.200, 40.0103028,-105.2440968, 1586.234,1607.562, 6278.410,4439.507
1721675025.240192,0,37,1008,-2301,-3238,3692
1721675025.249488,-1,44,1008,-2397,-3535,2406
1721675025.258784,0,47,1007,-2520,-3990,1487
1721675025.268080,-6,51,1008,-2493,-4559,1032
1721675025.277376,-14,57,1007,-2362,-5102,1172
1721675025.286672,-18,56,1008,-2231,-5522,1688
1721675025.295968,-21,55,1006,-1951,-5697,2406
1721675025.305268,-22,52,1002,-1531,-5758,3465,-7653,-39343,66827,,, 155048.300, 40.0103028,-105.2440968, 1586.234,1607.562, 6278.410,4439.507
1721675025.314564,-18,46,1006,-1198,-5644,4375
1721675025.323860,-8,39,1010,-822,-5452,4900
1721675025.333156,-1,31,1010,-595,-5355,4987
1721675025.342452,-3,24,1009,-612,-5382,4742
1721675025.351748,0,25,1006,-717,-5723,3998
1721675025.361044,-8,30,1004,-866,-6257,3053
1721675025.370340,-19,28,1005,-1181,-6703,2423
1721675025.379639,-37,25,1007,-1400,-7184,2388,-7702,-39385,66845,84564,33990
1721675025.388935,-39,20,1008,-1680,-7508,2870
1721675025.398231,-28,14,1006,-2108,-7482,3325
1721675025.407527,-11,15,999,-2677,-7254,3867
1721675025.416823,3,13,994,-3272,-7245,4768
1721675025.426119,0,0,990,-3762,-7648,5748
1721675025.435415,-6,-6,985,-4340,-8217,6492
1721675025.444711,-6,-9,980,-5083,-9004,6798
1721675025.454010,-9,-9,976,-5880,-9897,6282,-7934,-39208,66857,84562,33992, 155048.399, 40.0103028,-105.2440968, 1586.234,1607.562, 6278.466,4439.546
1721675025.463306,-16,-6,975,-6676,-10807,5582
1721675025.472602,-34,-11,978,-7385,-11673,5013
1721675025.481898,-61,-6,984,-8093,-12338,4296
1721675025.491194,-74,1,989,-8785,-12565,3543
1721675025.500490,-76,10,992,-9388,-12207,2642
1721675025.509786,-75,18,995,-9966,-11393,2222
1721675025.519082,-66,27,996,-10351,-10360,2380
1721675025.528382,-71,40,994,-10543,-9188,3290,-7995,-38830,67224,84560,33990, 155048.499, 40.0103028,-105.2440968, 1586.234,1607.562, 6278.483,4439.558
1721675025.537678,-84,46,994,-10613,-8129,4856
1721675025.546974,-108,50,993,-10500,-7018,6405
1721675025.556270,-129,49,998,-10185,-5837,7708
1721675025.565566,-132,51,1005,-9773,-4542,8400
1721675025.574862,-130,63,1013,-9362,-2932,8426
1721675025.584158,-131,68,1012,-8793,-1409,8426
1721675025.593454,-130,70,1001,-8006,-140,8723
1721675025.602753,-122,72,990,-7148,1050,8995,-7122,-38781,67608,,, 155048.600, 40.0103028,-105.2440968, 1586.234,1607.562, 6278.501,4439.571
1721675025.612049,-133,75,978,-6343,1960,8583
1721675025.621345,-152,81,973,-5477,2703,7840
1721675025.630641,-158,88,966,-4637,3701,7752
1721675025.639937,-146,85,961,-3718,4961,8627
1721675025.649233,-140,79,961,-2765,6440,9791
1721675025.658529,-144,89,962,-1907,7962,10578
1721675025.667825,-135,103,969,-1102,9537,10710
1721675025.677124,-96,114,981,-201,11130,9861,,,,84562,34003
1721675025.686420,-67,116,992,919,12731,8452
1721675025.695716,-59,112,997,2232,13842,7271
1721675025.705012,-50,105,992,3745,14402,6466
1721675025.714308,-30,95,977,5040,14638,5530
1721675025.723604,-15,78,960,6169,14358,4593
1721675025.732900,-11,45,951,7097,13370,4182
1721675025.742196,-5,30,958,7674,12162,3167
1721675025.751496,9,10,972,7630,11147,1653,-5963,-39050,67755,84562,33994, 155048.700, 40.0103028,-105.2440968, 1586.234,1607.562, 6278.520,4439.584
1721675025.760792,11,-22,986,7412,10325,420
1721675025.770088,-9,-36,990,6834,9642,-779
1721675025.779384,-2,-35,989,5802,9248,-2783
1721675025.788680,7,-22,984,4524,9450,-6230
1721675025.797976,5,4,980,3159,9642,-10299
1721675025.807272,-7,34,979,2013,9905,-13773
1721675025.816568,-25,57,975,1322,10255,-15400
1721675025.825867,-46,71,969,1085,10911,-14254,-5462,-38946,67871,84559,33999, 155048.800, 40.0103028,-105.2440968, 1586.234,1607.562, 6278.541,4439.599
1721675025.835163,-58,56,962,1304,11821,-10920
1721675025.844459,-61,51,964,1733,13011,-7123
1721675025.853755,-68,27,965,1864,14385,-3702
1721675025.863051,-79,0,968,1733,15872,-1313
1721675025.872347,-78,-13,977,1155,17281,-569
1721675025.881643,-65,0,984,9,18830,-2293
1721675025.890939,-30,30,989,-1470,20396,-5128
1721675025.900238,1,54,992,-2651,21656,-7070,-4052,-38891,68194
1721675025.909534,22,82,989,-3237,22303,-6904
1721675025.918830,50,105,979,-3386,22286,-4629
1721675025.928126,90,101,973,-2940,21516,-1112
1721675025.937422,117,90,974,-2047,19941,2738
1721675025.946718,129,80,978,-1181,17605,6221
1721675025.956014,107,60,981,-577,14787,8872
1721675025.965310,81,41,979,-148,11733,10281
1721675025.974610,53,38,969,-148,9065,10832,-2618,-39251,68200,84562,34003, 155048.900, 40.0100311,-105.2439848, 1580.479,1601.807, 526.062,703.041
1721675025.983906,36,63,961,-446,6938,11471
1721675025.993202,21,96,958,-761,5363,12005
1721675026.002498,-15,125,955,-586,4392,12372
1721675026.011794,-33,151,961,-26,4383,13930
1721675026.021090,-26,149,974,1392,5171,15513
1721675026.030386,-31,142,984,3133,6772,16555
1721675026.039682,-43,139,978,4848,8758,17736
1721675026.048981,-51,123,953,6379,10823,19468,,,,84560,34003, 155049.000, 40.0102558,-105.2439422, 1590.191,1611.519, 550.264,704.715
1721675026.058277,-35,108,915,7770,12880,21656
1721675026.067573,-3,100,881,8820,14612,23922
1721675026.076869,20,102,850,9695,15277,26267
1721675026.086165,72,122,837,10448,15076,28061
1721675026.095461,99,135,842,11410,14297,28673
1721675026.104757,85,146,857,12697,12740,28026
1721675026.114053,60,156,872,14403,11182,26783
1721675026.123352,28,181,891,16214,10386,25488,-213,-40405,67779
1721675026.132648,2,191,914,17912,10605,23738
1721675026.141944,-3,181,931,19837,11865,22242
1721675026.151240,-22,173,937,21823,14113,23012
1721675026.160536,-33,161,936,23555,16948,26145
1721675026.169832,-14,144,928,24842,20133,29478
1721675026.179128,1,117,918,25909,23415,32200
1721675026.188424,211,66,929,26784,26075,33337
1721675026.197724,151,-76,964,27554,27938,32742,2630,-42120,66558,84563,34005, 155049.200, 40.0100049,-105.2440210, 1568.795,1590.123, 76.288,61.056
1721675026.207020,518,-222,1003,27712,27335,22592
1721675026.216316,851,-1170,1154,27878,25891,19775
1721675026.225612,373,-929,1276,22707,19110,-11690
1721675026.234908,242,-339,1195,7245,6728,-28613
1721675026.244204,315,-37,1060,-4585,866,-24273
1721675026.253500,73,141,1028,-9423,-1383,-17360
1721675026.262796,-8,74,1032,-10088,-3570,-7000
1721675026.272095,-31,2,1054,-7918,-622,4987,3863,-41857,66888,84561,34008
1721675026.281391,-14,9,1081,-6641,4173,17106
1721675026.290687,107,-29,1096,-6912,9423,27256
1721675026.299983,141,-63,1125,-7787,14288,32978
1721675026.309279,163,-75,1151,-9808,17036,35078
1721675026.318575,167,-83,1164,-12696,18515,34133
1721675026.327871,135,-56,1182,-15898,18760,31543
1721675026.337167,323,-43,1156,-19328,18357,26941
1721675026.346466,309,69,1131,-22408,17351,23380,5804,-40771,67864,84567,34008, 155049.300, 40.0100166,-105.2440231, 1571.537,1592.866, 84.080,65.001
1721675026.355762,444,133,1117,-24675,13606,25558
1721675026.365058,379,95,1109,-24946,9590,28297
1721675026.374354,287,117,1071,-23765,3928,25471
1721675026.383650,249,99,1043,-21813,-937,20483
1721675026.392946,287,58,1030,-18480,-4375,15190
1721675026.402242,310,88,1023,-14840,-6983,8872
1721675026.411538,341,101,1031,-11611,-10054,6072
1721675026.420838,349,83,1039,-8268,-13414,6326,,,,,, 155049.400, 40.0100084,-105.2440214, 1572.762,1594.090, 73.288,56.773
1721675026.430134,339,51,1042,-5188,-17352,6273
1721675026.439430,294,43,1048,-2703,-21552,5022
1721675026.448726,220,62,1057,-910,-25734,3683
1721675026.458022,158,89,1063,534,-29234,2712
1721675026.467318,85,71,1064,2074,-31422,2353
1721675026.476614,21,-1,1055,3772,-32244,577
1721675026.485910,21,-81,1036,5040,-31518,-2293
1721675026.495209,67,-56,1019,5364,-30013,-4437,4840,-40820,68115,84563,34008
1721675026.504505,124,-12,1027,4699,-28989,-4638
1721675026.513801,143,-30,1024,4043,-28097,-8505
1721675026.523097,94,-61,1014,3579,-27545,-7158
1721675026.532393,24,-75,997,2538,-26714,-2713
1721675026.541689,-16,12,1021,884,-25270,2528
1721675026.550985,8,31,1042,-1006,-23249,4418
1721675026.560281,22,60,1050,-1811,-20755,3307
1721675026.569580,22,70,1042,-2196,-18787,3001,3826,-40899,68127,84559,34008, 155049.500, 40.0099943,-105.2440105, 1572.435,1593.763, 66.297,51.511
1721675026.578876,-1,82,1041,-2012,-16897,2651
1721675026.588172,-149,207,1047,-1583,-14858,3325
1721675026.597468,-56,30,1090,-901,-12347,953
1721675026.606764,41,-21,1078,464,-8103,-8523
1721675026.616060,128,79,1057,-17,-5110,-4253
1721675026.625356,137,111,1041,-1461,-3422,-4752
1721675026.634652,133,96,1030,-1356,-2774,-5005
1721675026.643952,57,69,1045,-586,-2258,-5347,3674,-41033,68218,84561,34010, 155049.600, 40.0099819,-105.2439999, 1572.415,1593.743, 59.679,46.927
1721675026.653248,115,10,1082,-428,-1278,-7753
1721675026.662544,109,3,1107,-1032,481,-7692
1721675026.671840,64,54,1112,-3088,1312,-13659
1721675026.681136,42,93,1104,-5118,2388,-20948
1721675026.690432,68,20,1088,-6247,4243,-24474
1721675026.699728,94,-56,1054,-6982,6265,-26084
1721675026.709024,66,-96,1007,-8723,7962,-26644
1721675026.718353,87,-106,998,-11558,9196,-24702,3942,-39819,69134,,, 155049.700, 40.0099683,-105.2439919, 1571.699,1593.027, 53.556,42.868
1721675026.727649,52,-89,994,-14507,10535,-20677
1721675026.736945,69,-111,979,-17246,11453,-16722
1721675026.746241,132,-194,967,-19460,12626,-9442
1721675026.755537,193,-118,957,-21910,13081,-4699
1721675026.764833,210,15,954,-25095,11821,-2879
1721675026.774129,230,82,948,-26766,9572,-2704
1721675026.783425,249,126,956,-25987,6658,-1803
1721675026.792725,275,195,963,-23668,3561,-2879,,,,84562,34012
1721675026.802021,286,253,971,-20072,280,-3045
1721675026.811317,245,256,985,-15312,-3614,-4682
1721675026.820613,236,158,1005,-9695,-7560,-4104
1721675026.829909,308,94,974,-4357,-11410,-3859
1721675026.839205,278,172,989,-568,-15295,-5924
1721675026.848501,237,38,984,2065,-19924,-7648
1721675026.857797,145,-73,972,5233,-23573,-2993
1721675026.867096,76,-67,977,6038,-26802,-3115,3448,-39331,69445,84566,34012, 155049.800, 40.0099585,-105.2439906, 1572.173,1593.501, 48.649,39.330
1721675026.876392,53,-62,972,5075,-28552,4427
1721675026.885688,33,-1,992,3658,-29225,8723
1721675026.894984,15,20,1017,1908,-29470,12136
1721675026.904280,-9,63,1041,692,-28779,12468
1721675026.913576,-4,81,1044,-402,-27440,12363
1721675026.922872,-16,86,1041,-1128,-25235,9800
1721675026.932168,-23,74,1036,-1697,-22602,6667
1721675026.941467,-11,45,1029,-2388,-19504,3307,2575,-39288,69580,84565,34017, 155049.900, 40.0099576,-105.2439973, 1573.921,1595.249, 44.596,36.119
1721675026.950763,2,32,1019,-3430,-16267,-62
1721675026.960059,6,35,1012,-5048,-13265,-2494
1721675026.969355,-6,41,1011,-6991,-10745,-3938
1721675026.978651,-94,55,1021,-9038,-8777,-4892
1721675026.987947,-212,42,1034,-11138,-6948,-5180
1721675026.997243,-255,34,1043,-13090,-4104,-3684
1721675027.006539,-296,57,1049,-15181,280,-2205
1721675027.015839,-285,98,1047,-17246,5372,-525,3082,-38189,70288,84563,34017, 155050.000, 40.0099766,-105.2440053, 1577.627,1598.956, 40.004,32.756
1721675027.025135,-238,116,1036,-18777,11042,2397
1721675027.034431,-140,136,1015,-19573,16511,4821
1721675027.043727,-21,167,997,-19713,21078,5967
1721675027.053023,117,206,988,-19267,24010,6335
1721675027.062319,284,271,986,-17990,25165,6195
1721675027.071615,380,267,978,-15872,23940,5005
1721675027.080911,436,249,965,-12486,20098,2887
1721675027.090210,404,220,987,-9038,14253,2432,4077,-37762,70544
1721675027.099506,324,213,1006,-5897,7420,1006
1721675027.108802,189,193,1030,-3010,1093,1715
1721675027.118098,64,186,1047,-271,-3947,2213
1721675027.127394,21,148,1046,2354,-6633,3001
1721675027.136690,12,126,1029,4883,-7097,2633
1721675027.145986,38,100,1013,6782,-6563,1435
1721675027.155282,44,56,1004,7998,-5600,70
1721675027.164581,47,37,995,8540,-4795,-2013,3839,-38311,70312,84562,34012, 155050.100, 40.0099925,-105.2440144, 1579.875,1601.203, 36.541,30.265
1721675027.173877,58,49,993,8295,-3947,-4052
1721675027.183173,78,72,997,7700,-3072,-6099
1721675027.192469,97,69,1002,7272,-2345,-8015
1721675027.201765,107,76,1010,7097,-1987,-9730
1721675027.211061,109,100,1015,6992,-2057,-11025
1721675027.220357,109,118,1018,7123,-2547,-11988
1721675027.229653,104,120,1022,7727,-3282,-13090
1721675027.238953,111,109,1027,8707,-4069,-14000,,,,84562,34021, 155050.200, 40.0100056,-105.2440218, 1582.331,1603.659, 33.652,28.007
1721675027.248249,124,101,1035,9765,-4935,-14928
1721675027.257545,124,108,1038,10640,-5898,-15715
1721675027.266841,118,98,1044,11489,-6992,-16065
1721675027.276137,107,70,1049,12259,-8085,-15890
1721675027.285433,104,64,1057,12618,-9118,-15374
1721675027.294729,105,80,1066,12487,-9984,-14963
1721675027.304025,97,89,1071,11988,-10737,-14884
1721675027.313324,92,85,1069,11472,-11375,-14569,2838,-39093,69873,,, 155050.300, 40.0100158,-105.2440272, 1583.454,1604.782, 31.182,25.998
1721675027.322620,83,76,1061,11043,-11979,-13747
1721675027.331916,73,65,1047,10684,-12539,-12592
1721675027.341212,66,51,1030,9897,-12810,-11305
1721675027.350508,56,39,1019,9144,-13047,-10159
1721675027.359804,44,38,1014,8269,-12950,-9240
1721675027.369100,29,32,1012,7377,-12583,-8645
1721675027.378396,18,29,1010,6580,-11804,-8304
1721675027.387696,18,17,1003,5732,-10623,-8225,1916,-39416,69665,84563,34019
1721675027.396992,16,5,993,4909,-9275,-8558
1721675027.406288,26,-3,986,3947,-7910,-8575
1721675027.415584,34,-5,987,2879,-6703,-8374
1721675027.424880,33,4,991,1619,-5644,-7867
1721675027.434176,23,20,997,307,-4988,-7359
1721675027.443472,19,23,1002,-980,-4358,-6773
1721675027.452768,25,37,1002,-2073,-3623,-6388
1721675027.462067,45,59,1001,-3010,-2923,-6300,1507,-39318,69732,84562,34023, 155050.400, 40.0100001,-105.2440296, 1581.839,1603.167, 28.855,23.978
1721675027.471363,64,71,996,-3736,-2442,-6790
1721675027.480659,72,74,988,-3972,-2249,-7683
1721675027.489955,71,78,979,-3963,-2372,-8698
1721675027.499251,68,88,974,-3535,-2818,-9494
1721675027.508547,57,93,980,-3071,-3264,-10159
1721675027.517843,42,100,989,-2555,-3684,-10702
1721675027.527139,35,90,996,-1977,-3964,-11034
1721675027.536438,31,81,1001,-1452,-3982,-11367,1062,-39276,69891,84569,34025, 155050.500, 40.0099891,-105.2440361, 1580.434,1601.762, 26.925,22.240
1721675027.545734,31,80,1007,-1207,-3745,-11253
1721675027.555030,31,77,1009,-1181,-3509,-10562
1721675027.564326,23,89,1011,-1268,-3255,-9267
1721675027.573622,20,97,1012,-1470,-3054,-7972
1721675027.582918,17,110,1016,-1522,-2722,-7062
1721675027.592214,18,117,1018,-1338,-2372,-6292
1721675027.601510,22,113,1018,-892,-2135,-6090
1721675027.610810,14,98,1026,-341,-1715,-6388,,,,,, 155050.600, 40.0099845,-105.2440420, 1579.615,1600.943, 25.554,20.932
1721675027.620106,13,74,1023,158,-1392,-6869
1721675027.629402,14,43,1018,490,-797,-6965
1721675027.638698,27,33,1016,420,-280,-6913
1721675027.647994,38,39,1018,-280,175,-7018
1721675027.657290,44,38,1022,-1146,402,-7079
1721675027.666586,49,47,1023,-2030,411,-6965
1721675027.675882,55,53,1021,-2983,411,-6922
1721675027.685181,50,56,1020,-3701,367,-7000,915,-39221,69946,84564,34023
1721675027.694477,54,56,1017,-4200,253,-6904
1721675027.703773,62,68,1015,-4541,297,-6580
1721675027.713069,54,115,1023,-4663,253,-6519
1721675027.722365,73,96,1020,-4418,218,-6397
1721675027.731661,58,79,1016,-3281,201,-5994
1721675027.740957,69,63,1012,-2432,-27,-5714
1721675027.750253,91,42,1007,-2091,96,-5408
1721675027.759552,102,57,1008,-2178,-27,-5329,732,-39001,70117,84567,34030, 155050.700, 40.0099782,-105.2440451, 1578.321,1599.649, 24.402,19.816
1721675027.768848,85,89,1027,-2922,-639,-5452
1721675027.778144,92,107,1040,-3403,-1514,-5460
1721675027.787440,63,135,1041,-3237,-2179,-5417
1721675027.796736,61,121,1033,-2520,-2660,-5705
1721675027.806032,64,119,1033,-1050,-2634,-5933
1721675027.815328,48,123,1035,184,-2555,-6152
1721675027.824624,48,98,1030,1427,-2450,-6458
1721675027.833924,50,77,1026,2739,-2030,-6790,476,-38952,70135,84566,34023, 155050.800, 40.0099641,-105.2440448, 1576.654,1597.982, 23.566,18.944
1721675027.843220,49,58,1023,3553,-1619,-7167
1721675027.852516,48,33,1019,3763,-1278,-7622
1721675027.861812,46,22,1014,3352,-963,-8050
1721675027.871108,55,30,1014,2503,-508,-8278
1721675027.880404,66,52,1014,1383,-79,-8488
1721675027.889700,73,69,1015,315,245,-8497
1721675027.898996,70,76,1011,-376,253,-8243
1721675027.908295,68,85,1008,-630,-53,-7700,225,-38842,70104,,, 155050.900, 40.0099422,-105.2440385, 1573.906,1595.235, 22.793,18.125
1721675027.917591,67,87,1005,-682,-403,-7167
1721675027.926887,66,86,1000,-455,-858,-6677
1721675027.936183,59,79,997,-140,-1409,-6300
1721675027.945479,49,71,999,228,-1899,-6134
1721675027.954775,48,68,1004,429,-2240,-6099
1721675027.964071,48,70,1008,473,-2354,-6143
1721675027.973367,47,72,1015,394,-2310,-6134
1721675027.982666,52,81,1020,280,-2310,-6090,,,,84564,34023
1721675027.991962,63,88,1022,79,-2223,-6082
1721675028.001258,75,89,1021,79,-2100,-5828
1721675028.010554,82,87,1019,62,-2319,-5504
1721675028.019850,81,85,1019,210,-2774,-5487
1721675028.029146,81,84,1021,368,-3264,-5355
1721675028.038442,77,76,1021,482,-3763,-5145
1721675028.047738,75,78,1019,534,-4087,-4997
1721675028.057068,71,85,1020,490,-4323,-4839,-79,-38751,70117,84563,34030, 155051.000, 40.0099255,-105.2440324, 1571.601,1592.929, 22.177,17.486
1721675028.066364,75,87,1023,482,-4367,-4690
1721675028.075660,87,82,1025,648,-4279,-4410
1721675028.084956,98,81,1024,823,-4200,-3912
1721675028.094252,103,86,1028,989,-4253,-3448
1721675028.103548,91,87,1032,1112,-4454,-2993
1721675028.112844,74,81,1035,1182,-4629,-2590
1721675028.122140,56,79,1032,1155,-4620,-2153
1721675028.131439,44,81,1029,1129,-4375,-1733,-354,-38751,70129,84559,34030, 155051.100, 40.0099197,-105.2440295, 1570.454,1591.782, 21.668,16.989
1721675028.140735,37,78,1024,1077,-3903,-1409
1721675028.150031,33,72,1018,1068,-3334,-1252
1721675028.159327,37,76,1011,1094,-2652,-1147
1721675028.168623,45,83,1009,1077,-1995,-1120
1721675028.177919,48,79,1006,1155,-1435,-1339
1721675028.187215,46,75,1001,1322,-1007,-1768
1721675028.196511,48,69,994,1348,-700,-2223
1721675028.205811,51,64,989,1392,-482,-2660,-439,-38909,70025,,, 155051.200, 40.0099163,-105.2440276, 1569.750,1591.078, 21.165,16.518
1721675028.215107,49,64,988,1217,-455,-2984
1721675028.224403,40,65,990,989,-508,-3063
1721675028.233699,30,60,992,735,-543,-3212
1721675028.242995,20,63,998,403,-420,-3387
1721675028.252291,20,61,1001,44,-140,-3457
1721675028.261587,24,56,1005,-323,253,-3605
1721675028.270883,33,57,1006,-805,726,-3999
1721675028.280182,46,62,1008,-1312,1225,-4498,-445,-38891,70031,84570,34032
1721675028.289478,59,68,1011,-1758,1540,-4874
1721675028.298774,71,74,1012,-2073,1583,-5093
1721675028.308070,75,76,1009,-2257,1295,-4839
1721675028.317366,70,73,1010,-2380,752,-4542
1721675028.326662,58,73,1013,-2327,78,-4305
1721675028.335958,43,73,1016,-2283,-420,-4192
1721675028.345254,34,73,1015,-2222,-674,-4095
1721675028.354553,34,76,1013,-2143,-534,-3982,-354,-38867,70074,84558,34034, 155051.300, 40.0099148,-105.2440261, 1569.202,1590.531, 20.639,16.055
1721675028.363849,40,91,1013,-1986,-105,-3597
1721675028.373145,46,98,1012,-1758,315,-2958
1721675028.382441,50,95,1010,-1181,673,-2293
1721675028.391737,58,96,1012,-498,980,-1584
1721675028.401033,64,102,1013,272,1155,-832
1721675028.410329,71,107,1016,1120,1303,-149
1721675028.419625,77,100,1016,1952,1268,612
1721675028.428925,79,99,1018,2792,1163,1575,,,,84563,34037, 155051.400, 40.0099153,-105.2440259, 1569.130,1590.459, 20.194,15.691
1721675028.438221,79,103,1021,3509,953,2091
1721675028.447517,75,107,1022,4209,813,2126
1721675028.456813,78,107,1021,4883,708,2222
1721675028.466109,77,95,1019,5644,717,2450
1721675028.475405,82,82,1021,6370,682,2581
1721675028.484701,84,75,1020,6852,682,2695
1721675028.493997,79,58,1016,7140,516,2800
1721675028.503296,76,53,1014,7062,446,2660,-115,-39172,69769,,, 155051.500, 40.0099163,-105.2440277, 1569.357,1590.686, 19.782,15.381
1721675028.512592,73,49,1012,6738,332,2406
1721675028.521888,69,50,1015,6257,236,2038
1721675028.531184,59,48,1013,5522,96,1688
1721675028.540480,57,55,1009,4717,35,1356
1721675028.549776,47,62,1004,3938,122,1365
1721675028.559072,38,72,1003,3343,227,1470
1721675028.568368,29,78,1002,3010,577,1452
1721675028.577667,28,64,1001,3045,1058,1312,128,-39404,69720,84567,34050
1721675028.586963,29,50,1006,3168,1732,927
1721675028.596259,35,44,1007,3107,2353,393
1721675028.605555,45,41,1005,2774,2975,-403
1721675028.614851,51,39,1005,2179,3447,-1462
1721675028.624147,62,27,1001,1540,3482,-2573
1721675028.633443,63,46,999,718,3307,-3168
1721675028.642739,93,57,1008,-201,2826,-3518
1721675028.652039,85,49,1013,-901,2222,-3124,170,-39477,69738,84565,34041, 155051.600, 40.0099156,-105.2440292, 1569.460,1590.788, 19.390,15.090
1721675028.661335,76,53,1013,-1417,1102,-3107
1721675028.670631,67,64,1009,-1767,-97,-2967
1721675028.679927,64,66,1007,-2082,-1015,-2564
1721675028.689223,63,66,1008,-2310,-1558,-2258
1721675028.698519,63,56,1009,-2135,-2240,-1724
1721675028.707815,59,40,1012,-2100,-2617,-1453
1721675028.717111,60,33,1015,-2231,-2818,-1462
1721675028.726441,58,26,1014,-2668,-2914,-1374,85,-39086,69891,84570,34052, 155051.700, 40.0099182,-105.2440326, 1569.846,1591.175, 18.812,14.680
1721675028.735737,62,30,1016,-3325,-2949,-1173
1721675028.745033,67,45,1018,-4086,-2923,-1033
1721675028.754329,71,55,1019,-4830,-2818,-1024
1721675028.763625,67,67,1018,-5372,-2844,-753
1721675028.772921,73,96,1020,-5687,-2967,-237
1721675028.782217,79,116,1024,-5748,-3098,96
1721675028.791513,83,119,1025,-5311,-3317,367
1721675028.800873,84,113,1021,-4488,-3588,875,,,,,, 155051.800, 40.0099157,-105.2440332, 1569.892,1591.220, 18.384,14.362
1721675028.810169,78,110,1016,-3596,-3859,1478
1721675028.819465,65,114,1015,-2738,-4113,1942
1721675028.828761,51,106,1010,-1890,-4288,2502
1721675028.838057,41,91,1005,-1015,-4174,2983
1721675028.847353,39,88,1000,-393,-3780,3368
1721675028.856649,36,84,998,-8,-3203,3316
1721675028.865945,33,72,996,158,-2660,2878
1721675028.875183,32,72,996,88,-2004,2467,42,-39093,69958,84566,34052
1721675028.884479,31,79,999,-131,-1365,2091
1721675028.893775,22,77,1003,-472,-648,1855
1721675028.903071,18,77,1008,-717,-9,1837
1721675028.912367,18,77,1007,-1111,918,1636
1721675028.921663,28,70,1002,-1461,1968,1592
1721675028.930959,42,69,1001,-1925,2975,1793
1721675028.940255,53,71,1000,-2493,3902,1986
1721675028.949555,64,75,1001,-3010,4506,1863,451,-38647,70184,84567,34057, 155051.900, 40.0099142,-105.2440334, 1569.821,1591.150, 17.968,14.043
1721675028.958851,69,88,1004,-3657,4935,1767
1721675028.968147,73,96,1008,-4121,5057,1443
1721675028.977443,76,103,1008,-4401,5005,1023
1721675028.986739,81,116,1006,-4313,4585,717
1721675028.996035,81,125,1005,-3990,4060,533
1721675029.005331,81,126,999,-3333,3395,297
1721675029.014627,86,111,1000,-2423,2677,323
1721675029.023926,84,95,998,-1347,1872,848,708,-38684,70306,84565,34059, 155052.000, 40.0099129,-105.2440337, 1569.797,1591.125, 17.576,13.741
1721675029.033222,77,101,998,-498,918,1128
1721675029.042518,49,94,997,97,148,1400
1721675029.051814,66,74,1005,622,-385,1697
1721675029.061110,59,46,1013,1042,-359,1916
1721675029.070406,50,49,1006,998,-412,1898
1721675029.079702,57,64,1002,534,-342,1181
1721675029.088998,70,63,1003,35,8,341
1721675029.098297,84,56,1004,-201,113,892,860,-38488,70330
1721675029.107593,81,53,1006,-507,166,1522
1721675029.116889,70,57,1008,-927,-158,1636
1721675029.126185,60,64,1013,-1365,-517,1688
1721675029.135481,57,70,1020,-1837,-648,1680
1721675029.144777,56,77,1028,-2266,-552,1400
1721675029.154073,56,75,1030,-2607,-403,1085
1721675029.163369,55,73,1030,-2878,-123,726
1721675029.172760,67,81,1029,-3158,140,341,,,,84569,34057, 155052.100, 40.0099136,-105.2440350, 1569.993,1591.321, 17.208,13.459
1721675029.182056,74,82,1030,-3351,367,43
1721675029.191352,77,96,1027,-3430,420,-307
1721675029.200648,77,109,1025,-3351,227,-648
1721675029.209944,74,111,1023,-2948,-18,-700
1721675029.219240,68,111,1023,-2345,-420,-665
1721675029.228536,63,114,1021,-1592,-692,-779
1721675029.237832,62,111,1019,-735,-867,-875
1721675029.247040,64,107,1018,105,-989,-832,921,-38305,70471,84560,34063, 155052.200, 40.0099149,-105.2440367, 1570.165,1591.493, 16.853,13.182
1721675029.256336,63,106,1020,858,-1033,-980
1721675029.265632,66,107,1020,1549,-1103,-1278
1721675029.274928,71,103,1018,2188,-1208,-1532
1721675029.284224,72,95,1016,2739,-1287,-1698
1721675029.293520,71,84,1013,3150,-1462,-1724
1721675029.302816,72,72,1010,3448,-1619,-1689
1721675029.312112,71,65,1008,3474,-1777,-1663
1721675029.321411,70,67,1011,3264,-2074,-1750,854,-38507,70385,,, 155052.300, 40.0099165,-105.2440397, 1570.528,1591.856, 16.532,12.926
1721675029.330707,62,65,1014,2862,-2284,-1812
1721675029.340003,60,65,1016,2442,-2372,-1794
1721675029.349299,63,70,1012,1890,-2188,-1602
1721675029.358595,69,71,1007,1514,-2179,-1374
1721675029.367891,74,73,1005,1155,-2065,-1068
1721675029.377187,79,71,1003,1007,-1952,-1033
1721675029.386483,80,75,1004,840,-1917,-1042
1721675029.395813,79,80,1005,683,-1882,-770,817,-38696,70208,84568,34066
1721675029.405109,76,79,1006,560,-1899,-578
1721675029.414405,73,78,1008,490,-1908,-578
1721675029.423701,73,77,1004,464,-1803,-543
1721675029.432997,74,78,1002,350,-1698,-508
1721675029.442293,71,78,1000,237,-1619,-543
1721675029.451589,67,80,1001,88,-1584,-569
1721675029.460885,62,81,1003,-26,-1540,-578
1721675029.470185,64,83,1010,-157,-1330,-700,805,-38714,70263,84561,34068, 155052.400, 40.0099235,-105.2440450, 1571.318,1592.646, 16.150,12.650
1721675029.479481,65,81,1016,-306,-1015,-989
1721675029.488777,66,86,1018,-533,-622,-1295
1721675029.498073,66,94,1023,-813,-219,-1654
1721675029.507369,67,96,1032,-1137,253,-1978
1721675029.516665,71,94,1037,-1286,796,-2372
1721675029.525961,77,90,1039,-1470,1286,-2862
1721675029.535257,82,85,1042,-1750,1863,-3177
1721675029.544556,88,80,1044,-2108,2231,-3290,842,-38415,70471,84566,34075, 155052.500, 40.0099296,-105.2440503, 1571.832,1593.160, 15.757,12.328
1721675029.553852,89,82,1043,-2528,2450,-3317
1721675029.563148,88,81,1040,-2922,2423,-3255
1721675029.572444,90,87,1035,-3263,2248,-3098
1721675029.581740,88,96,1026,-3570,1995,-2967
1721675029.591036,81,107,1014,-3648,1540,-3124
1721675029.600332,77,113,1004,-3526,1067,-3658
1721675029.609628,71,114,1000,-3088,586,-4209
1721675029.618927,61,119,997,-2423,166,-4708,,,,,, 155052.600, 40.0099372,-105.2440540, 1572.268,1593.596, 15.394,12.025
1721675029.628223,46,108,998,-1688,-114,-5443
1721675029.637519,35,91,1000,-743,-158,-6160
1721675029.646815,29,76,1001,-96,236,-6712
1721675029.656111,25,66,999,333,945,-6965
1721675029.665407,34,64,1000,429,1881,-6642
1721675029.674703,43,78,1008,315,2835,-5574
1721675029.683999,60,104,1018,105,3657,-4463
1721675029.693299,72,122,1028,70,4278,-3369,866,-38269,70489,84561,34072
1721675029.702595,78,129,1032,350,4690,-2258
1721675029.711891,88,135,1026,832,4786,-1505
1721675029.721187,86,136,1010,1488,4672,-1112
1721675029.730483,98,128,1003,2372,4375,-1007
1721675029.739779,85,110,1003,3474,4042,-1094
1721675029.749075,72,94,998,4507,3377,-858
1721675029.758371,61,83,997,5207,2826,-1707
1721675029.767670,62,75,999,5618,2581,-2660,1098,-38519,70263,84558,34077, 155052.700, 40.0099420,-105.2440565, 1572.521,1593.849, 15.044,11.733
1721675029.776966,63,69,1005,5802,2520,-3124
1721675029.786262,66,65,1006,5828,2537,-3518
1721675029.795558,82,69,1006,5618,2642,-3929
1721675029.804854,114,73,1000,5347,2677,-3947
1721675029.814150,150,73,993,5093,2450,-3667
1721675029.823446,178,66,985,4935,1645,-3273
1721675029.832742,191,54,976,4787,175,-2940
1721675029.842041,180,45,967,4673,-1934,-2713,811,-38842,70166,84570,34077, 155052.800, 40.0099456,-105.2440585, 1572.912,1594.240, 14.714,11.462
1721675029.851337,153,40,963,4297,-4305,-2503
1721675029.860633,119,35,962,3850,-6589,-2485
1721675029.869929,91,31,962,3325,-8470,-2520
1721675029.879225,74,29,966,2704,-9722,-2345
1721675029.888521,56,32,971,1960,-10378,-2083
1721675029.897817,42,38,980,1173,-10614,-1917
1721675029.907113,33,50,994,368,-10369,-1943
1721675029.916413,32,64,1007,-542,-9660,-1829,292,-38732,70153,,, 155052.900, 40.0099481,-105.2440596, 1573.154,1594.483, 14.376,11.191
1721675029.925709,42,80,1016,-1408,-8689,-1768
1721675029.935005,55,92,1014,-2152,-7613,-1803
1721675029.944301,62,99,1009,-2651,-6738,-1698
1721675029.953597,56,112,1008,-2913,-6195,-1418
1721675029.962893,43,121,1009,-2957,-5854,-1007
1721675029.972189,34,126,1011,-2651,-5583,-587
1721675029.981485,31,127,1014,-2196,-5189,-105
1721675029.990784,30,128,1017,-1610,-4638,350,,,,84563,34079
1721675030.000080,25,127,1022,-980,-3868,682
1721675030.009376,26,128,1024,-367,-2897,857
1721675030.018672,31,128,1024,219,-1724,1032
1721675030.027968,35,127,1019,858,-648,1128
1721675030.037264,46,125,1013,1470,402,1496
1721675030.046560,63,116,1008,1943,1207,2100
1721675030.055856,78,104,1004,2503,1671,2590
1721675030.065186,92,91,1002,3010,1811,2738,402,-38574,70135,84569,34079, 155053.000, 40.0099518,-105.2440619, 1573.552,1594.880, 14.077,10.965
1721675030.074482,95,82,1003,3325,1723,2870
1721675030.083778,87,77,1003,3404,1461,3027
1721675030.093074,75,70,1001,3413,1058,3193
1721675030.102370,72,67,997,3290,787,3316
1721675030.111666,79,70,992,3098,665,3465
1721675030.120962,92,66,991,2905,472,3456
1721675030.130258,110,56,989,2739,148,3368
1721675030.139557,111,50,991,2503,-385,2931,549,-38793,70074,84567,34092, 155053.100, 40.0099521,-105.2440634, 1573.749,1595.078, 13.763,10.736
1721675030.148853,100,32,992,2048,-1173,2397
1721675030.158149,84,17,992,1383,-1855,1898
1721675030.167445,72,17,997,429,-2275,1513
1721675030.176741,65,25,1002,-743,-2450,1023
1721675030.186037,55,31,1006,-2030,-2363,385
1721675030.195333,45,32,1007,-3377,-2039,-44
1721675030.204629,38,41,1006,-4541,-1628,-237
1721675030.213928,37,62,1007,-5661,-1050,-412,585,-38415,70410,,, 155053.200, 40.0099567,-105.2440659, 1574.087,1595.416, 13.377,10.453
1721675030.223224,36,85,1011,-6676,-447,-648
1721675030.232520,32,99,1016,-7323,245,-998
1721675030.241816,32,95,1014,-7542,1085,-1418
1721675030.251112,38,92,1009,-7402,1951,-1882
1721675030.260408,50,98,1006,-7140,2826,-2118
1721675030.269704,56,93,1006,-6772,3657,-2144
1721675030.279000,59,87,1007,-6265,4331,-1917
1721675030.288300,57,91,1015,-5818,4795,-1462,982,-38055,70697,84562,34088
1721675030.297596,54,96,1023,-5530,5127,-893
1721675030.306892,52,99,1029,-5311,5530,-473
1721675030.316188,51,110,1029,-5110,5897,-27
1721675030.325484,54,120,1028,-4821,6238,358
1721675030.334780,62,123,1027,-4392,6580,778
1721675030.344076,79,118,1025,-3815,6860,997
1721675030.353372,97,111,1020,-3027,6982,1023
1721675030.362671,112,107,1018,-2161,6833,875,,,,84567,34092, 155053.300, 40.0099572,-105.2440648, 1573.990,1595.318, 13.007,10.186
1721675030.371967,119,108,1018,-1295,6440,630
1721675030.381263,125,106,1023,-516,5897,533
1721675030.390559,131,102,1028,263,5267,315
1721675030.399855,136,104,1031,928,4497,148
1721675030.409151,135,105,1033,1357,3508,122
1721675030.418447,130,103,1032,1672,2476,227
1721675030.427743,124,101,1029,1978,1356,560
1721675030.437042,117,104,1026,2232,201,778,1385,-38134,70672,84562,34095, 155053.400, 40.0099589,-105.2440651, 1574.116,1595.444, 12.665,9.932
1721675030.446338,111,101,1025,2363,-823,770
1721675030.455634,105,99,1026,2582,-1733,463
1721675030.464930,100,93,1024,2704,-2407,-158
1721675030.474226,97,87,1019,2905,-2809,-1033
1721675030.483522,93,80,1017,3028,-2984,-1742
1721675030.492818,92,76,1015,3212,-3010,-2275
1721675030.502114,93,72,1014,3159,-2897,-2503
1721675030.511414,91,73,1010,3054,-2809,-2144,1239,-38275,70495,,, 155053.500, 40.0099606,-105.2440663, 1574.381,1595.709, 12.339,9.688
1721675030.520710,89,75,1011,2792,-2792,-1549
1721675030.530006,89,84,1011,2477,-2844,-753
1721675030.539302,87,88,1011,2100,-2853,-53
1721675030.548598,81,97,1010,1960,-2923,463
1721675030.557894,76,104,1009,1838,-2923,735
1721675030.567190,68,105,1009,1899,-2713,612
1721675030.576486,63,98,1008,2144,-2284,227
1721675030.585785,61,88,1006,2345,-1733,-158,1220,-38470,70404,84568,34097
1721675030.595081,66,82,1004,2538,-1094,-718
1721675030.604377,76,81,1005,2590,-412,-1252
1721675030.613673,82,78,1005,2450,78,-1593
1721675030.622969,83,80,1006,2275,350,-1820
1721675030.632265,83,87,1006,1960,411,-1908
1721675030.641561,85,96,1007,1593,332,-1917
1721675030.650857,91,107,1008,1400,157,-1925
1721675030.660156,93,112,1009,1348,-132,-1917,1153,-38519,70324,84559,34101, 155053.600, 40.0099641,-105.2440685, 1574.762,1596.090, 12.039,9.447
1721675030.669452,90,105,1008,1470,-569,-1917
1721675030.678748,88,97,1007,1777,-937,-1864
1721675030.688044,92,93,1002,2030,-1339,-1715
1721675030.697340,95,87,1000,2214,-1637,-1453
1721675030.706636,98,76,1001,2275,-1925,-1208
1721675030.715932,100,69,999,2258,-2328,-1024
1721675030.725228,96,69,1000,2013,-2765,-744
1721675030.734528,88,70,1002,1593,-3203,-377,1000,-38604,70214,84564,34106, 155053.700, 40.0099699,-105.2440693, 1575.036,1596.364, 11.802,9.231
1721675030.743824,77,72,1007,1120,-3535,-114
1721675030.753120,70,72,1008,893,-3973,113
1721675030.762416,64,78,1006,237,-3772,385
1721675030.771712,62,90,1006,-131,-3404,560
1721675030.781008,63,95,1006,-306,-2993,516
1721675030.790304,65,98,1006,-280,-2415,551
1721675030.799600,70,103,1009,-8,-1899,542
1721675030.809021,76,103,1011,272,-1392,507,,,,,, 155053.800, 40.0099755,-105.2440719, 1575.567,1596.895, 11.590,9.046
1721675030.818317,81,96,1014,683,-945,595
1721675030.827613,86,96,1017,1015,-613,875
1721675030.836909,83,99,1017,1217,-447,1023
1721675030.846205,80,99,1016,1295,-280,910
1721675030.855501,80,94,1017,1330,-202,743
1721675030.864797,83,91,1013,1400,-97,507
1721675030.874093,88,89,1009,1418,-114,166
1721675030.883331,93,82,1002,1365,-219,-114,1098,-38720,70257,84566,34115
1721675030.892627,94,81,1002,1322,-473,-298
1721675030.901923,90,88,1004,1199,-788,-412
1721675030.911219,86,85,1007,1094,-1217,-718
1721675030.920515,83,78,1006,1094,-1628,-963
1721675030.929811,79,73,1005,1042,-1952,-1094
1721675030.939107,76,68,1002,805,-2223,-1243
1721675030.948403,78,66,1002,595,-2450,-1295
1721675030.957703,83,71,1003,333,-2625,-1243,885,-38677,70233,84564,34106, 155053.900, 40.0099833,-105.2440761, 1576.328,1597.656, 11.367,8.863
1721675030.966999,86,72,1006,9,-2818,-1295
1721675030.976295,86,66,1006,-183,-3054,-1365
1721675030.985591,84,68,1006,-350,-3404,-1252
1721675030.994887,82,70,1007,-560,-3570,-972
1721675031.004183,77,69,1008,-621,-3789,-604
1721675031.013479,74,73,1012,-700,-4052,-342
1721675031.022775,70,82,1020,-735,-4113,-298
1721675031.032074,61,85,1026,-770,-4008,-350,750,-38635,70269,84566,34119, 155054.000, 40.0099914,-105.2440812, 1577.203,1598.531, 11.158,8.690
1721675031.041370,53,86,1029,-708,-3745,-604
1721675031.050666,56,97,1027,-586,-3168,-797
1721675031.059962,66,110,1024,-411,-2512,-805
1721675031.069258,76,114,1018,-70,-1899,-674
1721675031.078554,83,116,1015,543,-1348,-604
1721675031.087850,92,126,1012,1339,-1094,-508
1721675031.097146,96,131,1010,2284,-1103,-342
1721675031.106446,98,127,1005,3264,-1173,-184,653,-38720,70104,,, 155054.100, 40.0099978,-105.2440855, 1577.971,1599.299, 10.958,8.527
1721675031.115742,96,119,1000,4375,-1470,35
1721675031.125038,95,104,997,5382,-1873,236
1721675031.134334,96,85,996,6204,-2337,525
1721675031.143630,102,72,1000,6668,-2862,1137
1721675031.152926,107,61,1009,6755,-3658,2047
1721675031.162222,107,56,1016,6362,-4428,3088
1721675031.171518,97,55,1018,5574,-5347,3972
1721675031.180817,82,55,1014,4524,-6370,4751,,,,84569,34119
1721675031.190113,65,55,1010,3352,-7254,5223
1721675031.199409,51,59,1004,2232,-7744,5180
1721675031.208705,40,60,996,1287,-8112,4655
1721675031.218001,32,54,989,560,-8024,3736
1721675031.227297,31,51,985,0,-7744,2528
1721675031.236593,34,47,983,-437,-7097,1242
1721675031.245889,33,35,984,-840,-6353,-27
1721675031.255188,29,27,986,-1163,-5618,-1199,347,-38812,70111,84562,34119, 155054.200, 40.0100035,-105.2440894, 1578.686,1600.014, 10.761,8.377
1721675031.264484,25,20,987,-1636,-4909,-1917
1721675031.273780,20,15,987,-2240,-4025,-2240
1721675031.283076,19,18,989,-2887,-3203,-2415
1721675031.292372,19,25,990,-3648,-2345,-2529
1721675031.301668,18,34,993,-4331,-1427,-2687
1721675031.310964,14,42,995,-4847,-447,-2827
1721675031.320260,19,48,996,-5057,533,-2967
1721675031.329560,21,54,996,-5188,1583,-2923,219,-38507,70312,84561,34121, 155054.300, 40.0100110,-105.2440941, 1579.441,1600.769, 10.558,8.227
1721675031.338856,26,57,996,-5180,2572,-2835
1721675031.348152,26,59,995,-4900,3412,-2660
1721675031.357448,29,61,997,-4576,4121,-2170
1721675031.366744,36,66,1003,-4243,4821,-1505
1721675031.376040,42,72,1012,-3867,5521,-972
1721675031.385336,42,74,1020,-3447,6151,-219
1721675031.394632,40,73,1027,-3097,6693,568
1721675031.403931,40,80,1028,-2808,7262,1242,775,-38366,70349,,, 155054.400, 40.0100218,-105.2440990, 1580.329,1601.657, 10.344,8.073
1721675031.413227,49,88,1029,-2633,7735,1802
1721675031.422523,67,90,1028,-2152,8032,2275
1721675031.431819,82,96,1026,-1890,8251,2616
1721675031.441115,89,102,1027,-1426,7980,2738
1721675031.450411,93,103,1032,-980,7551,2528
1721675031.459707,92,104,1035,-385,6991,2170
1721675031.469003,93,107,1037,140,6256,1837
1721675031.478333,98,108,1042,665,5661,1505,1135,-38458,70275,84575,34133
1721675031.487629,105,106,1048,1208,4978,1120
1721675031.496925,110,102,1052,1619,4296,848
1721675031.506221,109,101,1053,2004,3412,630
1721675031.515517,109,104,1053,2302,2423,350
1721675031.524813,111,104,1052,2617,1487,210
1721675031.534109,112,101,1046,2984,621,183
1721675031.543405,116,99,1039,3343,-219,350
1721675031.552704,107,92,1033,3815,-1112,586,,,,84563,34133, 155054.500, 40.0100336,-105.2441042, 1581.280,1602.608, 10.119,7.917
1721675031.562000,95,87,1029,4078,-1978,848
1721675031.571296,81,81,1028,4323,-2669,988
1721675031.580592,64,80,1030,4445,-3229,936
1721675031.589888,54,82,1029,4358,-3483,551
1721675031.599184,50,82,1028,4244,-3474,288
1721675031.608480,52,85,1024,4157,-3264,96
1721675031.617776,57,85,1021,4130,-2888,148
1721675031.627075,57,86,1017,4244,-2407,297,1049,-38793,70056,84563,34135, 155054.600, 40.0100439,-105.2441091, 1582.203,1603.532, 9.890,7.754
1721675031.636371,60,82,1016,4393,-2083,551
1721675031.645667,63,77,1012,4638,-1785,770
1721675031.654963,68,76,1007,4787,-1488,1085
1721675031.664259,71,75,1005,4909,-1330,1505
1721675031.673555,70,71,1002,5032,-1287,1933
1721675031.682851,64,68,1000,5145,-1322,2231
1721675031.692147,62,70,1002,5312,-1330,2625
1721675031.701447,59,69,1006,5355,-1234,2913,1104,-39166,69848,,, 155054.700, 40.0100551,-105.2441141, 1583.058,1604.386, 9.674,7.599
1721675031.710743,62,65,1007,5408,-1120,2878
1721675031.720039,67,64,1009,5443,-945,2922
1721675031.729335,79,64,1005,5382,-762,2887
1721675031.738631,86,63,1002,5198,-657,2852
1721675031.747927,84,62,1001,5075,-770,2765
1721675031.757223,82,56,1003,4874,-1059,2415
1721675031.766519,83,50,1004,4594,-1260,1995
1721675031.775818,86,48,1004,4270,-1453,1706,1226,-39495,69525,84555,34141
1721675031.785114,89,47,1003,3859,-1619,1522
1721675031.794410,91,45,1001,3360,-1882,1522
1721675031.803706,89,47,998,2905,-2223,1680
1721675031.813002,86,49,1000,2512,-2520,1933
1721675031.822298,78,51,1003,2092,-2827,2135
1721675031.831594,72,54,1006,1698,-3072,2161
1721675031.840890,68,55,1005,1339,-3142,2178
1721675031.850189,65,58,1004,1007,-3072,2205,1202,-39501,69500,84566,34148, 155054.800, 40.0100658,-105.2441185, 1583.884,1605.212, 9.458,7.436
1721675031.859485,61,62,1004,770,-2975,2038
1721675031.868781,58,65,1008,517,-2748,1688
1721675031.878077,53,63,1010,412,-2503,1268
1721675031.887373,51,60,1009,342,-2083,831
1721675031.896669,49,62,1011,324,-1637,568
1721675031.905965,51,67,1009,158,-1085,402
1721675031.915261,53,62,1006,62,-587,402
1721675031.924561,50,60,1002,158,-140,402,,,,84558,34150, 155054.900, 40.0100701,-105.2441219, 1584.541,1605.869, 9.271,7.288
1721675031.933857,49,57,1002,228,245,280
1721675031.943153,54,59,1002,324,735,183
1721675031.952449,62,65,1006,490,1146,183
1721675031.961745,64,62,1009,560,1470,315
1721675031.971041,64,63,1010,674,1723,358
1721675031.980337,66,65,1010,788,1802,227
1721675031.989633,68,59,1010,875,1846,113
1721675031.998932,71,48,1008,928,1933,-44,1318,-39581,69366,,, 155055.000, 40.0100770,-105.2441249, 1585.083,1606.411, 9.143,7.168
1721675032.008228,78,49,1009,875,1995,-237
1721675032.017524,84,46,1011,648,1907,-263
1721675032.026820,85,44,1011,385,1592,-62
1721675032.036116,80,48,1009,18,1198,148
1721675032.045412,81,46,1006,-358,647,367
1721675032.054708,81,47,1004,-586,183,551
1721675032.064004,78,52,1005,-770,-245,638
1721675032.073303,75,63,1012,-927,-622,498,1391,-39514,69439,84573,34155
1721675032.082599,70,64,1017,-1093,-840,350
1721675032.091895,69,64,1019,-988,-980,-27
1721675032.101191,70,66,1017,-822,-1015,-254
1721675032.110487,70,63,1016,-901,-674,-455
1721675032.119783,65,62,1016,-787,-569,-648
1721675032.129079,64,58,1016,-761,-368,-709
1721675032.138375,67,54,1013,-822,-149,-595
1721675032.147675,71,57,1012,-883,105,-333,1416,-39526,69439,84566,34157, 155055.100, 40.0100838,-105.2441281, 1585.619,1606.947, 9.024,7.061
1721675032.156971,70,64,1014,-980,210,-53
1721675032.166267,75,70,1013,-1128,367,61
1721675032.175563,78,75,1011,-1015,437,70
1721675032.184859,76,74,1010,-778,551,-140
1721675032.194155,71,72,1011,-516,656,-394
1721675032.203451,71,69,1012,-122,796,-648
1721675032.212747,73,65,1012,97,883,-814
1721675032.222046,80,61,1009,359,1050,-867,1501,-39300,69464,,, 155055.200, 40.0100902,-105.2441309, 1586.072,1607.400, 8.925,6.985
1721675032.231342,84,59,1012,517,1067,-884
1721675032.240638,87,54,1013,622,1032,-875
1721675032.249934,78,54,1012,674,945,-928
1721675032.259230,71,54,1012,622,822,-788
1721675032.268526,70,51,1011,482,770,-543
1721675032.277822,71,51,1010,280,866,-385
1721675032.287118,75,56,1008,97,910,-237
1721675032.296417,76,57,1007,-96,953,-175,1586,-39453,69421,84567,34162
1721675032.305713,76,58,1008,-280,883,-210
1721675032.315009,76,63,1013,-446,805,-167
1721675032.324305,74,70,1014,-542,700,-44
1721675032.333601,70,72,1016,-647,673,-62
1721675032.342897,64,73,1016,-656,665,-394
1721675032.352193,65,73,1015,-525,735,-692
1721675032.361489,67,73,1015,-323,918,-884
1721675032.370789,72,71,1013,-87,1207,-1059,,,,84568,34168, 155055.300, 40.0100944,-105.2441328, 1586.395,1607.723, 8.836,6.904
1721675032.380085,79,68,1009,184,1408,-1322
1721675032.389381,89,69,1006,412,1583,-1462
1721675032.398677,95,68,1003,578,1592,-1523
1721675032.407973,98,62,1001,945,1373,-1444
1721675032.417269,95,52,999,1252,997,-1199
1721675032.426565,87,44,1000,1505,586,-972
1721675032.435861,80,37,1001,1584,131,-753
1721675032.445160,76,33,1000,1462,-219,-613,1641,-39483,69415,84572,34166, 155055.400, 40.0100979,-105.2441344, 1586.691,1608.019, 8.736,6.817
1721675032.454456,75,34,1001,1208,-482,-665
1721675032.463752,75,35,1002,902,-534,-902
1721675032.473048,75,30,1002,543,-665,-1225
1721675032.482344,74,29,1004,167,-718,-1567
1721675032.491640,75,26,1004,-253,-797,-1812
1721675032.500936,72,21,1005,-761,-814,-1952
1721675032.510232,76,26,1005,-1338,-893,-1995
1721675032.519531,78,29,1007,-1960,-884,-1890,1531,-39428,69482,,, 155055.500, 40.0101008,-105.2441358, 1586.944,1608.273, 8.661,6.768
1721675032.528827,76,30,1010,-2528,-972,-1689
1721675032.538123,73,36,1013,-3010,-1068,-1462
1721675032.547419,75,47,1014,-3395,-1208,-1313
1721675032.556715,78,55,1016,-3657,-1330,-1155
1721675032.566011,76,71,1016,-3701,-1427,-1120
1721675032.575307,68,92,1015,-3491,-1540,-1164
1721675032.584603,52,107,1019,-2913,-1575,-1155
1721675032.593903,43,117,1023,-1872,-1418,-1120,1525,-39447,69476,84574,34177
1721675032.603199,33,115,1026,-446,-919,-1094
1721675032.612495,37,108,1024,1313,-219,-989
1721675032.621791,46,101,1019,3063,673,-727
1721675032.631087,55,90,1014,4638,1557,-499
1721675032.640383,54,90,1013,6064,2213,-219
1721675032.649679,43,76,1006,7193,2537,297
1721675032.658975,82,49,1021,8217,2975,875
1721675032.668274,96,21,1038,9214,3473,691,1745,-39929,69207,84564,34177, 155055.600, 40.0101031,-105.2441370, 1587.137,1608.465, 8.591,6.723
1721675032.677570,69,-70,1031,9643,3115,1408
1721675032.686866,72,-15,1020,8645,2520,831
1721675032.696162,80,-55,1020,6379,2091,323
1721675032.705458,106,-99,1024,4253,1723,1461
1721675032.714754,137,-14,1003,1400,1023,1548
1721675032.724050,216,95,971,-1680,52,1102
1721675032.733346,180,62,993,-3263,-1733,1470
1721675032.742645,76,3,1022,-2677,-4962,2292,,,,84567,34175, 155055.700, 40.0101066,-105.2441387, 1587.356,1608.684, 8.521,6.678
1721675032.751941,37,64,1028,-1986,-7622,1653
1721675032.761237,42,80,1023,-1995,-8357,630
1721675032.770533,62,70,1026,-1618,-8103,227
1721675032.779829,43,68,1029,-945,-7595,218
1721675032.789125,22,88,1031,-315,-7184,157
1721675032.798421,-3,108,1044,473,-6414,140
1721675032.807717,-24,94,1044,1768,-5128,-44
1721675032.817017,-27,80,1052,3334,-3343,-97,1458,-40051,69116,,, 155055.800, 40.0101072,-105.2441397, 1587.486,1608.814, 8.473,6.642
1721675032.826313,12,72,1043,4804,-1112,245
1721675032.835609,7,50,1040,5915,1058,420
1721675032.844905,-24,18,1033,6843,2537,656
1721675032.854201,-28,-25,1021,7219,4051,1242
1721675032.863497,53,-11,1012,6992,5888,1645
1721675032.872793,200,44,1008,5959,7752,980
1721675032.882089,231,38,1032,5032,7743,-237
1721675032.891480,223,63,1043,5067,5083,-1059,1684,-40417,68835,84562,34182
1721675032.900776,163,128,1043,5644,1548,-849
1721675032.910072,153,118,1051,6948,-2267,-552
1721675032.919368,127,66,1041,9450,-5329,131
1721675032.928664,119,-11,1029,11865,-7980,1268
1721675032.937960,128,-64,1024,13397,-10028,1951
1721675032.947256,139,-142,1026,13362,-11515,2143
1721675032.956552,116,-131,1021,11612,-12793,1216
1721675032.965851,162,-108,1020,7902,-14175,551,927,-40844,68457,84570,34188, 155055.900, 40.0101096,-105.2441409, 1587.717,1609.045, 8.422,6.605
1721675032.975147,15,-96,1012,3903,-14954,-875
1721675032.984443,1,-65,1019,517,-16065,-1672
1721675032.993739,-32,-18,1015,-2336,-15532,-1269
1721675033.003035,-33,39,1013,-4436,-14368,-1252
1721675033.012331,-12,79,1013,-5503,-12417,-1462
1721675033.021627,-50,59,1016,-5328,-10238,-2083
1721675033.030923,-84,99,1008,-4200,-8234,-2905
1721675033.040222,-56,180,1013,-2931,-5557,-2940,640,-41149,68133,84564,34191, 155056.000, 40.0101119,-105.2441419, 1587.921,1609.249, 8.373,6.569
1721675033.049518,-13,192,1019,-953,-2205,-3710
1721675033.058814,36,184,1017,2372,463,-4498
1721675033.068110,16,163,1007,6178,2047,-4095
1721675033.077406,47,115,1001,10124,2686,-3229
1721675033.086702,62,77,991,13633,3403,-2293
1721675033.095998,79,27,982,16197,3263,-1094
1721675033.105294,69,-19,980,17623,2695,-158
1721675033.114594,59,-51,978,17763,1846,638,,,,,, 155056.100, 40.0101134,-105.2441428, 1588.133,1609.461, 8.330,6.537
1721675033.123890,65,-61,977,16687,1242,936
1721675033.133186,69,-52,980,14700,822,962
1721675033.142482,69,-45,988,12478,341,918
1721675033.151778,67,-42,991,10334,-219,752
1721675033.161074,61,-37,994,8444,-692,568
1721675033.170370,74,-83,991,6764,-1033,280
1721675033.179666,154,-66,982,5163,-1190,-62
1721675033.189118,-117,6,1003,2730,-2013,-674,738,-41888,67553,84569,34193
1721675033.198414,15,-76,1001,665,-3063,-2407
1721675033.207710,-139,19,999,-288,-420,-4279
1721675033.217006,-57,27,990,-1583,1382,-4787
1721675033.226302,-102,24,990,-1531,5530,-7132
1721675033.235598,-16,65,985,-1006,8951,-8558
1721675033.244894,95,116,990,-166,12565,-9188
1721675033.254190,169,113,1008,1584,14542,-8777
1721675033.263336,179,73,1028,4297,14201,-7919,842,-42053,67486,84566,34199, 155056.200, 40.0101140,-105.2441440, 1588.414,1609.742, 8.288,6.505
1721675033.272632,132,-24,1036,7053,11865,-6895
1721675033.281928,165,-101,1030,8855,9178,-5679
1721675033.291224,182,-109,1014,8908,6833,-4069
1721675033.300520,204,-142,1011,7079,3867,-1077
1721675033.309816,129,-141,1009,4428,525,901
1721675033.319112,64,-180,1013,1304,-2363,3657
1721675033.328408,-9,-181,1011,-1610,-4892,4567
1721675033.337708,-20,-94,1000,-5048,-5478,5066,897,-41851,67474,84564,34199, 155056.300, 40.0101144,-105.2441437, 1588.508,1609.836, 8.248,6.474
1721675033.347004,3,-21,992,-8382,-4384,4541
1721675033.356300,-1,-9,1009,-10036,-2809,3841
1721675033.365596,-44,17,1022,-10272,-1435,2607
1721675033.374892,-30,27,1022,-9852,297,691
1721675033.384188,-13,36,1023,-8881,2502,-1497
1721675033.393484,4,14,1029,-7910,4576,-2240
1721675033.402780,62,3,1023,-7026,6256,-2459
1721675033.412079,105,10,1014,-6518,7245,-2302,1129,-41485,67907,,, 155056.400, 40.0101161,-105.2441424, 1588.517,1609.845, 8.207,6.438
1721675033.421375,102,-30,1018,-6221,7000,-1768
1721675033.430671,57,-83,1020,-6063,5897,-1129
1721675033.439967,77,-84,1017,-6728,4690,-202
1721675033.449263,139,-32,1013,-8382,4051,805
1721675033.458559,167,17,1019,-10377,3377,1881
1721675033.467855,86,31,1026,-11541,1373,1715
1721675033.477151,17,57,1027,-11541,-832,1216
1721675033.486450,-11,109,1021,-10858,-1532,691,1269,-41485,67907,84559,34206
1721675033.495746,-17,145,1013,-9397,-902,236
1721675033.505042,37,130,1005,-6720,743,-368
1721675033.514338,59,146,996,-3543,2283,-1514
1721675033.523634,92,116,991,-148,3342,-2074
1721675033.532930,123,88,988,3317,3797,-1663
1721675033.542226,156,78,978,6309,3307,-735
1721675033.551522,139,38,980,8584,2030,1295
1721675033.560822,127,-83,983,10474,-193,3526,,,,84562,34211, 155056.500, 40.0101177,-105.2441412, 1588.538,1609.866, 8.170,6.404
1721675033.570118,124,-114,976,11227,-2197,5451
1721675033.579414,134,-104,978,9660,-4025,7035
1721675033.588710,137,-112,991,6887,-5758,8478
1721675033.598006,14,-7,1000,3877,-7630,8557
1721675033.607302,-17,-4,1012,972,-8987,7306
1721675033.616598,-30,28,1021,-358,-8313,5013
1721675033.625894,-1,44,1026,-988,-6563,3045
1721675033.635193,63,81,1027,-1076,-4428,1426,1214,-41711,67730,84564,34220, 155056.600, 40.0101181,-105.2441397, 1588.505,1609.833, 8.137,6.372
1721675033.644489,-21,86,1046,-551,-2800,542
1721675033.653785,100,95,1019,832,-2345,-263
1721675033.663081,69,106,1011,2687,-1085,-797
1721675033.672377,69,-5,991,4997,-1278,175
1721675033.681673,25,-73,986,7237,-1365,411
1721675033.690969,9,-136,963,7560,-1567,525
1721675033.700265,-16,-182,957,6064,-1015,647
1721675033.709564,-26,-219,954,3045,253,1338,1245,-41937,67535,,, 155056.700, 40.0101174,-105.2441386, 1588.492,1609.820, 8.102,6.339
1721675033.718860,-21,-148,971,-1277,2065,1225
1721675033.728156,-7,-99,982,-6361,4016,1163
1721675033.737452,43,-31,1000,-10640,6125,551
1721675033.746748,39,26,1009,-13413,7787,700
1721675033.756044,88,39,1009,-14446,8496,437
1721675033.765340,126,32,1019,-13973,8960,577
1721675033.774636,136,-23,1020,-13055,8181,647
1721675033.783936,123,-19,1000,-12136,6755,691,1684,-41369,68157,84562,34208
1721675033.793232,113,-26,999,-12145,5092,892
1721675033.802528,81,-30,1001,-12442,3587,1295
1721675033.811824,68,-16,996,-12783,2187,1820
1721675033.821120,72,-25,991,-13072,1505,1767
1721675033.830416,77,-7,997,-13002,1260,1767
1721675033.839712,74,32,1001,-13177,1058,1793
1721675033.849008,87,45,1014,-12941,866,1863
1721675033.858307,32,57,1030,-12066,700,1697,1879,-40832,68560,84559,34228, 155056.800, 40.0101167,-105.2441372, 1588.464,1609.792, 8.065,6.299
1721675033.867603,32,76,1035,-10797,630,1312
1721675033.876899,20,77,1040,-9108,1435,656
1721675033.886195,45,69,1045,-7218,2450,568
1721675033.895491,69,7,1050,-5250,3430,787
1721675033.904787,75,-23,1053,-3727,4042,726
1721675033.914083,96,-45,1049,-3412,4208,770
1721675033.923379,89,-54,1043,-4121,3885,971
1721675033.932678,134,-1,1044,-5276,3325,988,,,,84563,34226, 155056.900, 40.0101162,-105.2441358, 1588.445,1609.773, 8.038,6.266
1721675033.941974,137,43,1043,-6501,2668,385
1721675033.951270,124,2,1027,-6571,1146,-9
1721675033.960566,108,4,1043,-5477,-368,-219
1721675033.969862,49,1,1033,-5153,-1855,-630
1721675033.979158,40,-4,1048,-4803,-2590,-823
1721675033.988454,18,-34,975,-4681,-2599,-814
1721675033.997750,6,-46,1026,-4978,-1768,-665
1721675034.007050,29,-50,996,-6195,-665,-1593,1867,-40606,68872,,, 155057.000, 40.0101160,-105.2441344, 1588.520,1609.848, 8.010,6.234
1721675034.016346,48,-21,1030,-7761,840,-2590
1721675034.025642,85,-96,960,-9493,2205,-2092
1721675034.034938,115,-147,1023,-10928,3351,-1155
1721675034.044234,176,-114,1005,-13650,3141,-1908
1721675034.053530,218,-59,1013,-18165,1688,-2765
1721675034.062826,144,9,1030,-22356,-788,-2030
1721675034.072122,81,36,1056,-25235,-3710,-1987
1721675034.081421,-14,207,1053,-26713,-5565,-2695,1647,-39355,69744,84565,34235
1721675034.090717,5,168,1036,-26512,-6029,-3352
1721675034.100013,82,185,1018,-23520,-4410,-3719
1721675034.109309,55,138,1013,-20422,-3133,-2984
1721675034.118605,75,128,1006,-17307,-2897,-3037
1721675034.127901,33,16,997,-14498,-2354,-3212
1721675034.137197,125,69,1038,-13055,-2232,-3159
1721675034.146493,65,91,996,-14411,-1374,-3920
1721675034.155792,44,5,975,-14210,-1777,-3798,1416,-38458,70538,84555,34240, 155057.100, 40.0101152,-105.2441329, 1588.622,1609.950, 7.984,6.203
1721675034.165088,80,19,992,-13877,-1470,-2337
1721675034.174384,89,39,991,-14533,-1164,-1059
1721675034.183680,76,30,1009,-15470,-945,-735
1721675034.192976,73,34,1037,-16642,-1015,-315
1721675034.202272,86,71,1053,-18165,-1024,-893
1721675034.211568,102,117,1056,-19503,-1120,-1742
1721675034.220864,117,171,1052,-20168,-1435,-2722
1721675034.230194,111,183,1048,-19775,-2109,-4139,848,-37292,71301,84564,34242, 155057.200, 40.0101146,-105.2441314, 1588.640,1609.968, 7.958,6.173
1721675034.239490,94,158,1034,-18173,-3107,-5635
1721675034.248786,67,141,1028,-16021,-4113,-7018
1721675034.258082,76,100,1025,-14061,-4743,-8015
1721675034.267378,61,38,1028,-12573,-4830,-8715
1721675034.276674,37,-59,989,-12258,-5215,-8969
1721675034.285970,-43,136,1025,-14026,-4848,-11253
1721675034.295266,-44,185,1038,-16353,-3728,-11673
1721675034.304566,31,222,1039,-16371,-1602,-8978,,,,,, 155057.300, 40.0101146,-105.2441304, 1588.639,1609.967, 7.923,6.127
1721675034.313862,107,279,1038,-14673,516,-7307
1721675034.323158,103,344,1055,-11593,1382,-6747
1721675034.332454,104,317,1062,-7122,796,-6747
1721675034.341750,74,171,1058,-1557,-158,-5548
1721675034.351046,135,132,1047,3492,-1112,-4157
1721675034.360342,126,127,1006,5872,-1864,-3098
1721675034.369638,105,25,1026,6537,-3212,-2975
1721675034.378937,28,-37,1017,6239,-5399,-1138,524,-36840,71459,84557,34246
1721675034.388233,39,81,996,4218,-5837,-805
1721675034.397529,76,135,1007,1567,-5110,-648
1721675034.406825,111,188,1006,368,-4769,-315
1721675034.416121,78,224,1016,534,-4839,26
1721675034.425417,71,209,1015,2118,-5548,96
1721675034.434713,83,213,1009,4577,-6029,-237
1721675034.444009,-58,216,1011,7062,-6563,-447
1721675034.453308,-66,44,1003,9634,-6712,-814,213,-37054,71270,84564,34253, 155057.400, 40.0101164,-105.2441295, 1588.606,1609.934, 7.880,6.075
1721675034.462604,-49,157,986,11725,-4970,-753
1721675034.471900,-20,92,970,11358,-2310,-394
1721675034.481196,-10,47,969,11463,288,-455
1721675034.490492,3,70,963,10474,2493,61
1721675034.499788,13,47,964,8645,4313,-149
1721675034.509084,56,36,962,6992,5731,-149
1721675034.518380,50,-2,960,5093,6737,113
1721675034.527680,38,-40,952,2800,6825,175,598,-37060,71166,84564,34253, 155057.500, 40.0101163,-105.2441273, 1588.510,1609.838, 7.830,6.003
1721675034.536976,54,-61,937,-533,6886,35
1721675034.546272,113,-38,927,-4795,7070,87
1721675034.555568,116,19,926,-9572,6545,-79
1721675034.564864,144,97,932,-14078,5477,-770
1721675034.574160,159,169,941,-17167,3946,-1575
1721675034.583456,164,228,955,-18375,2003,-2337
1721675034.592752,142,286,968,-17718,-210,-2774
1721675034.602051,86,310,984,-15435,-2424,-2993,354,-36419,71588,,, 155057.600, 40.0101171,-105.2441255, 1588.389,1609.717, 7.773,5.919
1721675034.611347,21,305,998,-11908,-4139,-3072
1721675034.620643,-38,277,1006,-7778,-4629,-3203
1721675034.629939,-30,249,990,-3832,-3763,-3422
1721675034.639235,6,240,985,-516,-1488,-3684
1721675034.648531,39,172,996,2153,848,-3500
1721675034.657827,-7,154,1010,4227,2703,-3238
1721675034.667123,-9,143,1011,5110,4226,-3430
1721675034.676422,33,165,1009,5373,6343,-3360,628,-36773,71356,84560,34255
1721675034.685718,61,174,1008,5399,8216,-2984
1721675034.695014,111,170,1009,5845,9318,-2520
1721675034.704310,143,171,1012,6458,9485,-2135
1721675034.713606,157,157,1016,7149,8443,-1558
1721675034.722902,153,153,1022,7744,6300,-954
1721675034.732198,118,167,1033,8129,3596,-307
1721675034.741494,83,182,1039,8540,1015,822
1721675034.750794,56,184,1047,9310,-910,1802,,,,84570,34260, 155057.700, 40.0101173,-105.2441247, 1588.452,1609.780, 7.723,5.846
1721675034.760090,52,203,1054,10518,-1995,2502
1721675034.769386,75,196,1059,11997,-2240,2922
1721675034.778682,92,185,1059,14105,-2232,3150
1721675034.787978,109,152,1064,16380,-2354,3097
1721675034.797274,116,114,1067,18332,-2722,3080
1721675034.806570,117,87,1062,19592,-3483,2966
1721675034.815866,117,52,1057,20003,-4559,2283
1721675034.825165,101,15,1053,19592,-5679,1741,555,-37811,70666,84564,34271, 155057.800, 40.0101183,-105.2441241, 1588.520,1609.848, 7.688,5.804
1721675034.834461,111,-68,1034,18463,-6913,1181
1721675034.843757,99,-118,1019,16625,-8112,603
1721675034.853053,78,-202,1003,12863,-9310,271
1721675034.862349,60,-260,978,7657,-10422,175
1721675034.871645,74,-222,958,587,-11192,52
1721675034.880941,77,-134,961,-7630,-11787,-464
1721675034.890237,74,-51,966,-15295,-12434,-1103
1721675034.899536,67,59,968,-21183,-13012,-2004,-390,-37182,71154,,, 155057.900, 40.0101188,-105.2441238, 1588.621,1609.949, 7.655,5.767
1721675034.908832,29,173,978,-24963,-13563,-3203
1721675034.918128,-13,252,994,-26075,-13834,-3999
1721675034.927424,-28,329,1000,-24648,-13344,-4813
1721675034.936720,-58,352,1003,-21122,-11883,-5565
1721675034.946016,-62,346,1003,-15855,-9914,-6239
1721675034.955312,-75,337,1004,-9948,-7167,-6764
1721675034.964608,-61,293,1006,-4033,-4095,-6808
1721675034.973938,-59,269,1009,1514,-753,-6537,-549,-37219,71081,84555,34269
1721675034.983234,-54,239,1014,5872,2327,-5924
1721675034.992530,-44,194,1016,9354,5328,-5119
1721675035.001826,7,160,1003,11935,8242,-4489
1721675035.011122,36,154,1003,13493,10762,-3500
1721675035.020418,50,114,1013,14289,12066,-1882
1721675035.029714,71,81,1014,14613,12661,-158
1721675035.039010,96,73,1015,14018,12670,1093
1721675035.048310,119,73,1021,12565,12057,2283,36,-37738,70666,84571,34275, 155058.000, 40.0101180,-105.2441232, 1588.699,1610.027, 7.628,5.741
1721675035.057606,140,96,1024,10798,10867,3473
1721675035.066902,154,114,1026,9188,9126,4392
1721675035.076198,173,130,1024,8103,6921,4882
1721675035.085494,159,150,1029,7779,4471,5223
1721675035.094790,120,166,1041,8085,1741,5118
1721675035.104086,88,188,1052,8995,-823,4628
1721675035.113382,63,215,1058,10343,-2555,3963
1721675035.122681,48,244,1062,12207,-3623,3473,,,,,, 155058.100, 40.0101161,-105.2441233, 1588.816,1610.145, 7.599,5.716
1721675035.131977,80,289,1056,14797,-4165,3333
1721675035.141273,72,251,1052,18393,-4349,4200
1721675035.150569,112,182,1042,22952,-5023,5302
1721675035.159865,87,127,1039,27055,-5889,6107
1721675035.169161,71,25,1032,29847,-7342,6676
1721675035.178457,45,-53,1027,31063,-8558,7262
1721675035.187753,27,-105,1017,30127,-9564,7525
1721675035.197052,18,-140,1012,27353,-9748,7367,-109,-39343,69476,84561,34278
1721675035.206348,25,-173,1003,23205,-9669,6763
1721675035.215644,18,-175,990,18104,-9310,5731
1721675035.224940,14,-131,986,12259,-8925,4243
1721675035.234236,-7,-76,996,6493,-8313,2345
1721675035.243532,-19,-13,1003,1628,-7508,656
1721675035.252828,-21,57,1006,-1960,-6318,-447
1721675035.262124,-15,108,1002,-3981,-4857,-718
1721675035.271515,-12,145,989,-4200,-3360,-298,-421,-39477,69293,84567,34286, 155058.200, 40.0101159,-105.2441233, 1588.938,1610.266, 7.576,5.700
1721675035.280811,-15,172,982,-2992,-1978,271
1721675035.290107,0,194,981,-595,-578,918
1721675035.299403,13,186,985,2512,848,1391
1721675035.308699,24,158,985,6020,2056,1662
1721675035.317995,34,131,985,9188,3080,1811
1721675035.327291,47,93,984,11682,3797,2240
1721675035.336587,57,42,983,13318,4130,2992
1721675035.345795,68,12,981,13869,4165,3622,0,-40161,68780,84564,34293, 155058.300, 40.0101153,-105.2441229, 1589.018,1610.346, 7.555,5.684
1721675035.355091,79,-4,981,13265,3928,4200
1721675035.364387,82,-21,986,11778,3447,4786
1721675035.373683,83,-29,988,9704,2712,4961
1721675035.382979,81,-25,988,7097,1977,4908
1721675035.392275,75,-23,989,4349,1338,4917
1721675035.401571,69,-8,990,1593,743,4751
1721675035.410867,53,-1,988,-1041,236,4541
1721675035.420166,46,16,981,-3193,-105,4200,140,-39886,68975,,, 155058.400, 40.0101147,-105.2441227, 1589.092,1610.420, 7.532,5.666
1721675035.429462,47,44,976,-4891,-167,3876
1721675035.438758,43,69,981,-6002,-114,3491
1721675035.448054,32,90,990,-6352,-18,2712
1721675035.457350,24,98,994,-6186,306,1925
1721675035.466646,22,100,998,-5608,796,1295
1721675035.475942,20,94,1001,-4751,1400,875
1721675035.485238,16,89,1007,-3876,2065,787
1721675035.494538,20,71,1014,-3123,2826,918,,,,84564,34295
1721675035.503834,27,61,1016,-2476,3570,1207
1721675035.513130,32,57,1017,-2222,4252,1347
1721675035.522426,35,39,1014,-2196,4777,1260
1721675035.531722,42,31,1012,-2222,5188,1102
1721675035.541018,51,24,1010,-2423,5258,1032
1721675035.550314,56,13,1011,-2817,5293,1006
1721675035.559610,70,9,1013,-3342,4961,1155
1721675035.568939,77,8,1016,-4025,4480,1286,402,-39593,69219,84566,34304, 155058.500, 40.0101138,-105.2441231, 1589.142,1610.470, 7.506,5.643
1721675035.578235,78,11,1017,-4830,3640,1391
1721675035.587531,76,25,1018,-5678,2773,1487
1721675035.596827,70,42,1022,-6352,1855,1548
1721675035.606123,66,57,1028,-6886,988,1750
1721675035.615419,58,67,1032,-7052,148,1951
1721675035.624715,43,78,1034,-7113,-464,1986
1721675035.634011,35,86,1031,-6860,-849,1837
1721675035.643311,32,96,1030,-6326,-910,1837,469,-39227,69543,84573,34307, 155058.600, 40.0101129,-105.2441237, 1589.258,1610.587, 7.480,5.621
1721675035.652607,30,101,1029,-5565,-744,1942
1721675035.661903,26,102,1026,-4655,-403,1960
1721675035.671199,29,97,1020,-3561,0,1872
1721675035.680495,32,87,1015,-2371,367,2021
1721675035.689791,39,68,1013,-1277,638,2257
1721675035.699087,36,60,1016,-428,761,2388
1721675035.708383,33,54,1018,-78,796,2458
1721675035.717682,33,47,1017,-52,857,2397,708,-39202,69543,,, 155058.700, 40.0101121,-105.2441239, 1589.387,1610.715, 7.453,5.597
1721675035.726978,37,50,1015,-253,945,2388
1721675035.736274,44,51,1013,-630,945,2520
1721675035.745570,50,55,1010,-1023,857,2625
1721675035.754866,59,65,1008,-1338,647,2563
1721675035.764162,59,75,1011,-1548,358,2406
1721675035.773458,60,83,1014,-1548,61,2187
1721675035.782754,62,86,1013,-1365,-289,2047
1721675035.792053,64,82,1010,-1041,-657,1925,665,-39147,69531,84564,34302
1721675035.801349,69,86,1008,-630,-1068,1907
1721675035.810645,72,89,1007,-175,-1540,1925
1721675035.819941,72,96,1005,245,-2039,1408
1721675035.829237,73,94,1002,788,-2669,700
1721675035.838533,69,83,1000,1418,-3185,52
1721675035.847829,56,71,998,2030,-3815,-543
1721675035.857125,44,59,999,2398,-4253,-1129
1721675035.866425,29,51,999,2459,-4524,-1602,384,-39263,69525,,, 155058.800, 40.0101126,-105.2441249, 1589.575,1610.903, 7.421,5.573
1721675035.875721,16,46,1003,2275,-4515,-1820
1721675035.885017,7,43,1006,1899,-4157,-1899
1721675035.894313,0,44,1010,1374,-3588,-1750
1721675035.903609,-3,42,1011,718,-2774,-1645
1721675035.912905,-4,36,1014,-26,-1742,-1689
1721675035.922201,0,34,1019,-796,-630,-1733
1721675035.931497,11,38,1026,-1583,516,-1917
1721675035.940888,12,46,1031,-2476,1583,-2424,,,,84560,34315, 155058.900, 40.0101197,-105.2441269, 1589.937,1611.265, 7.366,5.533
1721675035.950184,14,50,1033,-3272,2520,-2809
1721675035.959480,8,56,1034,-3753,3316,-2862
1721675035.968776,-1,67,1035,-4016,3990,-2555
1721675035.978072,-12,77,1035,-4112,4655,-1925
1721675035.987368,-8,89,1039,-3885,5355,-1217
1721675035.996664,12,107,1037,-3403,6090,-394
1721675036.005960,43,122,1033,-2695,6676,218
1721675036.015167,74,121,1031,-1653,6842,446,665,-39184,69750,,, 155059.000, 40.0101215,-105.2441278, 1590.012,1611.340, 7.297,5.491
1721675036.024463,93,116,1031,-490,6518,376
1721675036.033759,111,104,1030,779,5766,280
1721675036.043055,112,114,1030,1838,4585,140
1721675036.052351,114,114,1031,2870,3115,157
1721675036.061647,102,87,1028,3947,1531,-639
1721675036.070943,95,69,1025,4865,-79,-1619
1721675036.080239,89,65,1023,5347,-1558,-2459
1721675036.089539,81,61,1024,5320,-2879,-3947,360,-39318,69488,84569,34322
1721675036.098835,48,107,1016,5110,-4122,-6265
1721675036.108131,33,50,1037,4988,-5137,-8085
1721675036.117427,37,33,1057,5242,-5434,-10649
1721675036.126723,32,102,1052,4725,-5609,-14149
1721675036.136019,23,147,1044,4218,-5767,-14893
1721675036.145315,-9,141,1038,4813,-5828,-15593
1721675036.154611,2,137,1023,6265,-5592,-15269
1721675036.163910,46,67,1038,7910,-4682,-12688,201,-40142,68908,84559,34320, 155059.100, 40.0101218,-105.2441285, 1589.733,1611.061, 7.220,5.440
1721675036.173206,262,89,986,9345,-3885,-9608
1721675036.182502,-198,412,966,10185,-5067,586
1721675036.191798,-157,538,929,12574,-6292,7883
1721675036.201094,-302,223,991,20125,-1488,22583
1721675036.210390,21,-26,1048,28840,4278,30030
1721675036.219686,86,-354,1079,33067,11331,27422
1721675036.228982,15,-139,1023,32200,13676,13623
1721675036.238312,-24,-52,964,27169,13921,4007,1647,-41125,68115,84561,34333, 155059.200, 40.0101223,-105.2441289, 1589.768,1611.096, 7.152,5.393
1721675036.247608,-45,-124,973,23949,14840,787
1721675036.256904,-4,-201,998,21622,16100,4856
1721675036.266200,61,-240,995,17754,17587,6037
1721675036.275496,110,-217,989,12600,18235,5915
1721675036.284792,155,-181,986,6563,17745,6545
1721675036.294088,173,-154,993,604,16511,8303
1721675036.303384,197,-147,1001,-4917,14446,10237
1721675036.312683,210,-107,994,-9948,11891,10237,,,,,, 155059.300, 40.0101245,-105.2441291, 1589.822,1611.150, 7.096,5.346
1721675036.321979,212,-22,986,-14288,8793,8837
1721675036.331275,202,49,981,-17421,5433,6562
1721675036.340571,193,98,982,-18768,1890,4016
1721675036.349867,178,98,981,-18480,-1357,2476
1721675036.359163,151,102,981,-17325,-4419,1015
1721675036.368459,116,94,982,-16047,-7044,288
1721675036.377755,83,97,986,-14805,-8873,428
1721675036.387055,47,109,995,-13728,-9835,2117,1721,-40216,68859,84568,34338
1721675036.396351,26,53,1005,-12635,-9827,4515
1721675036.405647,-56,40,1013,-11480,-8952,6037
1721675036.414943,118,197,980,-11182,-7657,6676
1721675036.424239,25,34,1004,-10202,-5443,11935
1721675036.433535,97,1,1019,-7918,-4935,14533
1721675036.442831,78,93,1026,-7393,-4148,14796
1721675036.452127,108,159,1038,-7446,-4472,14358
1721675036.461426,109,158,1051,-6370,-5189,13991,1959,-39837,69226,84565,34342, 155059.400, 40.0101263,-105.2441290, 1589.806,1611.134, 7.041,5.300
1721675036.470722,73,140,1059,-4471,-6598,14157
1721675036.480018,4,137,1056,-2563,-8094,13501
1721675036.489314,-21,151,1045,-603,-9074,11803
1721675036.498610,-13,41,1051,1593,-9144,10692
1721675036.507906,-46,38,1044,3544,-8794,8548
1721675036.517202,3,-11,1044,4008,-8287,6903
1721675036.526498,-7,-71,1054,3973,-7132,7761
1721675036.535797,10,-71,1061,2932,-6475,6457,1916,-39929,69177,84564,34347, 155059.500, 40.0101318,-105.2441295, 1589.945,1611.273, 6.957,5.225
1721675036.545093,56,-40,1060,893,-5565,5215
1721675036.554389,83,-17,1059,-1225,-4900,4611
1721675036.563685,68,31,1059,-2843,-4927,4926
1721675036.572981,32,91,1059,-3955,-5277,5661
1721675036.582277,8,122,1059,-4121,-5425,6072
1721675036.591573,-4,140,1059,-3395,-5049,5783
1721675036.600869,4,160,1061,-2030,-4384,4375
1721675036.610169,41,168,1060,-280,-3675,2283,2056,-39941,68945,,, 155059.600, 40.0101382,-105.2441294, 1589.836,1611.164, 6.854,5.157
1721675036.619465,189,158,1046,1908,-3107,1146
1721675036.628761,104,71,1017,4192,-3107,1758
1721675036.638057,-142,78,1010,6257,-3859,2922
1721675036.647353,-70,186,1001,7394,-2625,3263
1721675036.656649,-36,119,1029,9039,1925,1487
1721675036.665945,2,6,1039,11743,5582,1373
1721675036.675241,47,30,1024,13038,8137,463
1721675036.684540,53,76,1006,12557,9668,-779,,,,84565,34349
1721675036.693836,51,101,1003,12198,10578,-1033
1721675036.703132,-15,54,1006,12347,11515,96
1721675036.712428,-21,51,996,12784,12486,638
1721675036.721724,34,76,1000,13012,14306,778
1721675036.731020,41,51,1000,13405,15951,-543
1721675036.740316,63,30,998,14070,16703,-893
1721675036.749612,87,5,1003,14613,17202,-700
1721675036.758911,86,-6,1002,14840,17307,-893,2996,-40802,68328,84562,34347, 155059.700, 40.0101450,-105.2441295, 1589.718,1611.046, 6.747,5.092
1721675036.768207,89,-29,1007,14744,17115,-1217
1721675036.777503,87,-60,1011,14412,16913,-1260
1721675036.786799,121,-91,1012,13615,16625,-902
1721675036.796095,163,-98,1025,12014,16336,-490
1721675036.805391,175,-108,1031,9739,15251,-237
1721675036.814687,171,-103,1029,7132,13326,-359
1721675036.823983,145,-94,1031,4585,10920,-560
1721675036.833283,121,-73,1026,2249,8618,-1488,3869,-41259,67901,84564,34347, 155059.800, 40.0101529,-105.2441307, 1589.908,1611.236, 6.660,5.037
1721675036.842579,120,-61,1026,158,6851,-2249
1721675036.851875,130,-34,1025,-1592,5836,-3754
1721675036.861171,121,-13,1024,-3158,5390,-4410
1721675036.870467,110,6,1027,-4165,5188,-3395
1721675036.879763,123,30,1031,-4698,5232,-2984
1721675036.889059,133,54,1025,-4655,5136,-3168
1721675036.898355,233,100,1001,-3867,4558,-3212
1721675036.907685,0,226,981,-2441,3517,-412,4370,-41204,67895,,, 155059.900, 40.0101594,-105.2441317, 1590.032,1611.360, 6.590,4.988
1721675036.916981,-35,-7,1003,814,1933,9835
1721675036.926277,-2,80,1018,4874,3850,6650
1721675036.935573,52,124,1021,6572,6431,6658
1721675036.944869,24,142,1001,8890,8627,6405
1721675036.954165,116,115,963,11647,9843,6912
1721675036.963461,115,-75,967,14928,10981,11628
1721675036.972757,169,-187,986,17194,10963,11733
1721675036.982056,179,-157,988,16634,10272,9861,5383,-41943,67187,84565,34353
1721675036.991352,202,-117,972,14079,8268,8706
1721675037.000648,193,-117,962,11297,5442,8916
1721675037.009944,212,-87,954,8672,2327,9607
1721675037.019240,232,-55,949,6152,-674,10972
1721675037.028536,224,-55,955,4253,-3964,13352
1721675037.037832,221,-47,966,2923,-7289,15890
1721675037.047128,230,-38,974,1829,-10614,18672
1721675037.056427,232,-71,982,928,-13904,20842,,,,84564,34367, 155060.000, 40.0101642,-105.2441327, 1590.113,1611.441, 6.541,4.951
1721675037.065723,264,-71,991,-26,-17255,22155
1721675037.075019,254,-38,1001,-1583,-20659,22741
1721675037.084315,-5,-105,1027,-3132,-24492,20868
1721675037.093611,24,-98,1031,-4593,-27029,18760
1721675037.102907,61,56,1032,-6973,-26189,15496
1721675037.112203,9,52,1019,-9170,-25515,11217
1721675037.121499,-14,83,1011,-9476,-25130,7918
1721675037.130799,-67,0,1012,-9292,-23853,7936,5084,-41766,67413,84562,34369, 155060.100, 40.0101673,-105.2441329, 1590.148,1611.476, 6.490,4.917
1721675037.140095,-40,30,1003,-8566,-21893,6072
1721675037.149391,-16,35,1020,-8697,-18717,5958
1721675037.158687,-24,54,1028,-8977,-15785,3123
1721675037.167983,-22,79,1037,-9021,-12889,1986
1721675037.177279,11,73,1040,-8942,-9669,-149
1721675037.186575,66,80,1035,-8365,-6370,-1847
1721675037.195871,86,116,1031,-7551,-3509,-3334
1721675037.205170,69,126,1016,-6492,-1532,-5434,4626,-41308,67883,,, 155060.200, 40.0101718,-105.2441335, 1590.244,1611.572, 6.439,4.881
1721675037.214466,76,156,1033,-4760,-105,-8147
1721675037.223762,68,142,1039,-2651,1093,-9319
1721675037.233058,136,203,1037,9,1776,-8427
1721675037.242354,233,96,1078,2765,2196,-1462
1721675037.251650,171,41,1065,5705,1330,1330
1721675037.260946,140,42,1037,7622,-709,2835
1721675037.270242,138,32,1016,8715,-1803,5512
1721675037.279541,87,-32,1014,9800,-2372,8531,5029,-41882,67547,84564,34367
1721675037.288837,-1,-10,1036,10667,-2433,9817
1721675037.298133,-145,34,1048,10605,-1427,10788
1721675037.307429,-138,-57,1072,10553,1601,13772
1721675037.316725,-93,-70,1082,10824,6615,17867
1721675037.326021,143,86,1017,9862,11777,22785
1721675037.335317,223,88,953,8890,15942,22811
1721675037.344613,246,47,934,9459,16765,18506
1721675037.353943,207,16,944,10264,16213,17316,7067,-42126,67120,84567,34371, 155060.300, 40.0101754,-105.2441342, 1590.305,1611.634, 6.388,4.844
1721675037.363239,178,-48,966,10299,15050,16826
1721675037.372535,166,-32,978,9590,14315,16003
1721675037.381831,128,-13,982,7875,13790,15890
1721675037.391127,86,-34,991,6143,13422,14122
1721675037.400423,36,-103,995,4603,13580,12180
1721675037.409719,10,-151,983,2949,14280,10928
1721675037.419015,-6,-136,967,525,15373,10806
1721675037.428314,7,-88,960,-2257,16397,11313,9051,-41705,67303,84567,34382, 155060.400, 40.0101783,-105.2441355, 1590.532,1611.860, 6.334,4.797
1721675037.437610,30,-48,960,-4620,17193,11357
1721675037.446906,53,-29,957,-6055,17447,11348
1721675037.456202,65,-18,931,-6623,17018,13037
1721675037.465498,152,1,953,-6553,15960,20256
1721675037.474794,273,-55,987,-6667,14043,30773
1721675037.484090,148,-62,968,-7157,10141,29373
1721675037.493386,53,10,956,-8260,5425,17036
1721675037.502686,55,7,977,-8531,2983,12433,,,,,, 155060.500, 40.0101811,-105.2441359, 1590.679,1612.007, 6.276,4.742
1721675037.511982,59,-26,992,-7507,2012,13711
1721675037.521278,89,-22,1007,-6221,1513,12871
1721675037.530574,96,-32,1006,-5425,1006,12783
1721675037.539870,98,-42,994,-5250,227,9292
1721675037.549166,93,-18,995,-5153,-569,6317
1721675037.558462,111,-21,1010,-5048,-1295,5337
1721675037.567758,110,-38,1023,-4777,-2074,4550
1721675037.577057,97,-16,1032,-4418,-3159,3998,9680,-41265,67687,84565,34382
1721675037.586353,72,-14,1040,-4156,-4279,4208
1721675037.595649,51,-20,1040,-3683,-5180,4331
1721675037.604945,39,-31,1033,-3123,-5767,5066
1721675037.614241,82,-38,996,-2625,-5915,6553
1721675037.623537,85,97,1013,-2581,-6615,9896
1721675037.632833,109,45,1038,-2143,-8024,8268
1721675037.642129,15,-21,1049,-385,-9748,3255
1721675037.651428,-45,-10,1055,613,-11839,1111,9582,-41192,67840,84560,34389, 155060.600, 40.0101835,-105.2441362, 1590.660,1611.988, 6.229,4.708
1721675037.660724,-79,-26,1064,595,-12583,245
1721675037.670020,-86,-60,1065,394,-12355,-1908
1721675037.679316,-116,-73,1068,-122,-11673,-3614
1721675037.688612,-132,-90,1069,-962,-10754,-4935
1721675037.697908,-134,-110,1069,-2091,-9372,-5880
1721675037.707204,-129,-117,1067,-3421,-7762,-6230
1721675037.716500,-114,-122,1060,-4821,-6012,-5872
1721675037.725800,-106,-114,1050,-6133,-4323,-4664,9362,-40661,68347,84565,34391, 155060.700, 40.0101871,-105.2441375, 1590.754,1612.082, 6.183,4.674
1721675037.735096,-82,-112,1041,-7393,-2765,-4533
1721675037.744392,-59,-112,1039,-8338,-1278,-5539
1721675037.753688,-25,-114,1031,-9248,-114,-6703
1721675037.762984,2,-125,1018,-10115,612,-8278
1721675037.772280,11,-103,1018,-10928,796,-10658
1721675037.781576,8,-61,1029,-11961,507,-12373
1721675037.790872,28,-51,1029,-12521,35,-13187
1721675037.800171,40,-57,1021,-12346,-648,-14027,8715,-40209,69006,,, 155060.800, 40.0101928,-105.2441385, 1591.021,1612.349, 6.133,4.635
1721675037.809467,60,-66,1011,-11681,-1287,-14210
1721675037.818763,68,-53,1009,-10823,-2022,-13580
1721675037.828059,86,-31,1012,-9835,-2870,-13020
1721675037.837355,95,-4,1020,-8627,-3728,-12670
1721675037.846651,105,15,1021,-7105,-4760,-12793
1721675037.855947,97,27,1019,-5188,-6038,-14009
1721675037.865243,83,35,1023,-3097,-7403,-15882
1721675037.874542,71,34,1030,-901,-8575,-16792,,,,84573,34400
1721675037.883838,68,34,1028,1365,-9643,-16809
1721675037.893134,53,57,1029,3562,-10474,-16223
1721675037.902430,52,53,1033,5705,-11148,-15628
1721675037.911726,51,34,1034,8024,-11568,-15829
1721675037.921022,43,36,1031,10124,-11909,-15952
1721675037.930318,26,41,1028,11953,-12058,-15558
1721675037.939614,14,26,1024,13790,-12014,-15392
1721675037.948914,4,11,1021,15488,-11725,-15987,7263,-41058,68743,84566,34396, 155060.900, 40.0101977,-105.2441389, 1591.228,1612.556, 6.093,4.603
1721675037.958210,-4,0,1020,16722,-11209,-17159
1721675037.967506,-5,-40,1023,17640,-10614,-18690
1721675037.976802,-8,-91,1022,18130,-9958,-19959
1721675037.986098,-14,-120,1018,17833,-9302,-20458
1721675037.995394,-20,-140,1015,16800,-8540,-19662
1721675038.004690,-27,-145,1019,15260,-7648,-18305
1721675038.013986,-40,-135,1029,13283,-6633,-17010
1721675038.023285,-49,-128,1034,11148,-5469,-15584,5963,-42114,68005,,, 155061.000, 40.0102026,-105.2441396, 1591.474,1612.802, 6.049,4.563
1721675038.032581,-52,-117,1035,9232,-4157,-14368
1721675038.041877,-45,-102,1033,7508,-2547,-12950
1721675038.051173,-34,-77,1034,6012,-849,-11227
1721675038.060469,-28,-50,1035,4918,717,-9450
1721675038.069765,-13,-37,1033,4270,2222,-7639
1721675038.079061,2,-38,1026,4113,3517,-6038
1721675038.088357,6,-27,1017,4139,4585,-5014
1721675038.097656,12,-24,1017,4113,5530,-4139,6182,-42559,67547,84571,34411, 155061.100, 40.0102073,-105.2441402, 1591.759,1613.087, 5.993,4.514
1721675038.106952,25,-25,1015,4087,6300,-3290
1721675038.116248,31,-10,1014,3964,6868,-2468
1721675038.125544,49,-16,1006,3824,7332,-2100
1721675038.134840,70,-24,996,3763,7630,-2643
1721675038.144136,83,-18,991,3518,7656,-3387
1721675038.153432,90,-8,992,3080,7280,-4034
1721675038.162728,100,-15,988,2695,6781,-4927
1721675038.172028,103,-23,979,2442,6011,-5775,6262,-42858,67279,84563,34414
1721675038.181324,102,-27,972,2249,5118,-6414
1721675038.190620,106,-31,965,1943,4497,-6283
1721675038.199916,111,-39,959,1995,3543,-5749
1721675038.209212,109,-39,959,1934,2756,-5312
1721675038.218508,107,-45,962,1777,2047,-5137
1721675038.227804,91,-50,967,1567,1408,-5075
1721675038.237100,87,-65,968,1217,840,-5058
1721675038.246430,82,-71,968,692,472,-4865,,,,84568,34418, 155061.200, 40.0102132,-105.2441413, 1592.093,1613.421, 5.944,4.467
1721675038.255726,89,-74,967,-26,122,-4349
1721675038.265022,87,-66,973,-910,-167,-4139
1721675038.274318,75,-46,982,-1916,-587,-4270
1721675038.283614,72,-41,991,-3010,-1024,-4822
1721675038.292910,75,-45,996,-3955,-1392,-5880
1721675038.302206,74,-46,996,-4847,-1750,-6703
1721675038.311502,78,-56,993,-5731,-2109,-7298
1721675038.320801,76,-59,990,-6623,-2477,-7937,5981,-42810,67279,,, 155061.300, 40.0102189,-105.2441422, 1592.466,1613.794, 5.897,4.423
1721675038.330097,71,-52,994,-7630,-2827,-8505
1721675038.339393,67,-62,996,-8505,-3037,-9249
1721675038.348689,52,-67,998,-9213,-3290,-10080
1721675038.357985,46,-78,996,-9966,-3273,-10255
1721675038.367281,38,-78,997,-10657,-3028,-9975
1721675038.376577,35,-69,1001,-11252,-2590,-9319
1721675038.385873,41,-64,1002,-11751,-1917,-8505
1721675038.395172,42,-60,1006,-11978,-1077,-7779,5413,-42236,67773,84563,34416
1721675038.404468,35,-46,1014,-12066,-482,-7350
1721675038.413764,38,-44,1016,-12075,175,-6633
1721675038.423060,37,-37,1015,-11838,1032,-5863
1721675038.432356,40,-11,1016,-11576,1793,-5049
1721675038.441652,51,3,1016,-11077,2590,-4025
1721675038.450948,58,9,1017,-10228,3395,-3623
1721675038.460244,54,20,1023,-9187,4016,-3763
1721675038.469544,55,12,1027,-8111,4532,-3973,5474,-41888,68212,84562,34420, 155061.400, 40.0102232,-105.2441431, 1592.653,1613.981, 5.846,4.379
1721675038.478840,63,10,1031,-7035,4961,-4139
1721675038.488136,81,8,1031,-6037,5346,-3999
1721675038.497432,94,8,1033,-5180,5486,-3833
1721675038.506728,106,8,1034,-4558,5416,-4060
1721675038.516024,117,5,1033,-4016,5013,-4787
1721675038.525320,128,0,1032,-3561,4410,-5565
1721675038.534616,121,3,1036,-3167,3517,-6204
1721675038.543915,115,3,1039,-2948,2318,-6633,5212,-41741,68231,84570,34427, 155061.500, 40.0102290,-105.2441449, 1592.883,1614.211, 5.795,4.336
1721675038.553211,102,2,1038,-2800,1120,-7097
1721675038.562507,96,-2,1035,-2677,122,-7867
1721675038.571803,83,0,1033,-2485,-700,-8742
1721675038.581099,70,5,1032,-2318,-1330,-9275
1721675038.590395,62,1,1034,-1995,-1724,-9590
1721675038.599691,57,-6,1032,-1557,-1882,-9643
1721675038.608987,50,-7,1028,-1093,-1987,-9380
1721675038.618286,50,-10,1026,-787,-2004,-8899,4675,-41680,68261,,, 155061.600, 40.0102339,-105.2441453, 1593.086,1614.414, 5.747,4.300
1721675038.627582,51,-20,1026,-350,-1899,-8418
1721675038.636878,39,-21,1029,-61,-1724,-8260
1721675038.646174,29,-23,1032,53,-1759,-8357
1721675038.655470,28,-32,1032,97,-1540,-8488
1721675038.664766,26,-42,1030,18,-1357,-8654
1721675038.674062,18,-43,1027,-288,-1155,-8803
1721675038.683358,11,-45,1025,-621,-954,-8715
1721675038.692658,2,-43,1026,-971,-578,-8435,,,,84568,34427
1721675038.701954,5,-51,1023,-1242,-123,-7954
1721675038.711250,16,-54,1019,-1435,516,-7158
1721675038.720546,27,-42,1016,-1601,1067,-6090
1721675038.729842,47,-36,1013,-1820,1540,-5075
1721675038.739138,58,-31,1014,-1855,1828,-4559
1721675038.748434,61,-28,1016,-1802,1715,-4612
1721675038.757730,62,-25,1017,-1855,1347,-4795
1721675038.767029,62,-19,1021,-1820,883,-5180,4406,-41485,68432,84561,34427, 155061.700, 40.0102388,-105.2441455, 1593.264,1614.592, 5.697,4.263
1721675038.776325,60,-11,1021,-1802,358,-5355
1721675038.785621,59,-12,1021,-1715,-53,-5434
1721675038.794917,64,-20,1021,-1435,-473,-5548
1721675038.804213,63,-25,1021,-1076,-735,-5180
1721675038.813509,69,-35,1017,-621,-963,-4323
1721675038.822805,78,-46,1014,-140,-1164,-3194
1721675038.832101,86,-48,1014,184,-1435,-1864
1721675038.841400,95,-41,1015,272,-1890,-648,4193,-41485,68341,84569,34445, 155061.800, 40.0102437,-105.2441454, 1593.485,1614.813, 5.652,4.229
1721675038.850696,99,-36,1013,263,-2520,358
1721675038.859992,85,-20,1016,298,-3553,630
1721675038.869288,75,-13,1017,193,-4454,516
1721675038.878584,56,-11,1014,210,-5163,376
1721675038.887880,32,-23,1007,587,-5802,-167
1721675038.897176,14,-42,1001,1164,-5994,-508
1721675038.906472,4,-48,999,1698,-5644,-70
1721675038.915772,9,-54,994,2258,-4918,1347,4107,-41754,68200,,, 155061.900, 40.0102473,-105.2441454, 1593.666,1614.994, 5.606,4.195
1721675038.925068,11,-56,992,2765,-3964,3001
1721675038.934364,11,-49,999,3133,-3107,4410
1721675038.943660,12,-48,1010,3334,-2389,5206
1721675038.952956,15,-53,1018,3448,-1855,5495
1721675038.962252,9,-48,1022,3264,-1505,5871
1721675038.971548,0,-40,1024,2835,-1357,6055
1721675038.980844,-6,-29,1024,2275,-1059,6116
1721675038.990143,-6,-24,1020,1890,-709,6168,4559,-41778,68157,84563,34445
1721675038.999439,-8,-25,1016,1663,-202,6107
1721675039.008735,-5,-28,1016,1567,420,5967
1721675039.018031,-3,-30,1017,1409,1067,5976
1721675039.027327,5,-34,1019,1243,1688,6282
1721675039.036623,12,-38,1021,989,2170,6720
1721675039.045919,29,-37,1020,517,2397,7638
1721675039.055215,46,-23,1019,-70,2423,8855
1721675039.064514,70,-11,1018,-708,2135,9660,,,,84568,34452, 155062.000, 40.0102503,-105.2441446, 1593.758,1615.086, 5.560,4.162
1721675039.073810,80,1,1019,-1268,1487,9581
1721675039.083106,79,13,1023,-1767,577,8505
1721675039.092402,76,11,1021,-2108,-552,7061
1721675039.101698,72,5,1014,-2196,-1663,5617
1721675039.110994,68,1,1008,-2135,-2608,4935
1721675039.120290,63,1,1006,-1863,-3369,4943
1721675039.129586,58,6,1007,-1540,-3973,5346
1721675039.138886,46,15,1010,-1111,-4340,5827,4827,-41821,68084,84570,34458, 155062.100, 40.0102531,-105.2441440, 1593.875,1615.203, 5.516,4.129
1721675039.148182,41,12,1012,-498,-4682,6308
1721675039.157478,37,-2,1011,385,-4725,6746
1721675039.166774,28,-13,1007,1094,-4629,7052
1721675039.176070,15,-18,1007,1645,-4463,7472
1721675039.185366,7,-24,1008,2022,-4104,8102
1721675039.194662,7,-39,1007,2267,-3465,8785
1721675039.203958,9,-51,1005,2389,-2783,9485
1721675039.213288,5,-57,1003,2144,-2127,10333,5175,-41961,67950,,, 155062.200, 40.0102560,-105.2441439, 1593.965,1615.293, 5.473,4.097
1721675039.222584,-4,-64,1008,1689,-1418,10762
1721675039.231880,-10,-77,1012,1042,-700,11042
1721675039.241176,-10,-97,1013,298,43,11628
1721675039.250472,-13,-91,1012,-586,875,12967
1721675039.259768,-11,-79,1011,-1776,1715,14787
1721675039.269064,3,-68,1009,-2835,2633,16423
1721675039.278360,11,-61,1006,-3692,3517,17447
1721675039.287659,20,-58,1009,-4445,4112,17640,6365,-41674,68017,84565,34456
1721675039.296955,26,-37,1014,-5110,4585,17351
1721675039.306251,28,-20,1018,-5731,4900,16861
1721675039.315547,42,-11,1018,-5967,4996,16196
1721675039.324843,57,-10,1015,-5906,4996,15566
1721675039.334139,69,-19,1011,-5705,4830,15006
1721675039.343435,83,-23,1009,-5565,4348,14367
1721675039.352731,76,-13,1012,-5591,3587,13615
1721675039.362030,81,-9,1017,-5608,2730,12906,7189,-41479,68304,84566,34458, 155062.300, 40.0102604,-105.2441442, 1594.199,1615.527, 5.430,4.066
1721675039.371326,88,-18,1016,-5451,1986,12215
1721675039.380622,82,-9,1014,-5118,1067,11725
1721675039.389918,86,0,1007,-4821,-18,11488
1721675039.399214,91,10,1002,-4515,-893,11165
1721675039.408510,92,28,1000,-3823,-1803,10815
1721675039.417806,99,17,998,-2852,-2722,10386
1721675039.427102,92,7,999,-1618,-3597,9931
1721675039.436402,100,-2,998,-376,-4603,9887,,,,84563,34465, 155062.400, 40.0102651,-105.2441446, 1594.481,1615.809, 5.386,4.032
1721675039.445698,92,0,1001,639,-5487,10141
1721675039.454994,81,4,1008,1470,-6484,10491
1721675039.464290,84,-16,1011,2310,-7350,10841
1721675039.473586,71,-26,1012,3072,-8007,11147
1721675039.482882,61,-23,1018,3439,-8672,11550
1721675039.492178,60,-36,1018,3632,-9170,11882
1721675039.501474,48,-42,1020,3710,-9468,11576
1721675039.510773,30,-45,1023,3465,-9590,11103,7421,-41345,68243,,, 155062.500, 40.0102706,-105.2441450, 1594.834,1616.162, 5.344,3.999
1721675039.520069,23,-68,1029,3115,-9652,10552
1721675039.529365,17,-79,1033,2547,-9293,9878
1721675039.538661,11,-84,1033,1610,-8882,9450
1721675039.547957,10,-89,1031,429,-8348,9073
1721675039.557253,3,-88,1033,-857,-7718,8382
1721675039.566549,-8,-85,1034,-2301,-6948,7507
1721675039.575845,-22,-76,1036,-3613,-6090,6798
1721675039.585175,-28,-63,1039,-4803,-5058,6361,7550,-41320,68383,84568,34472
1721675039.594471,-27,-58,1035,-5792,-3772,6203
1721675039.603767,-31,-42,1034,-6475,-2345,5818
1721675039.613063,-33,-30,1034,-6947,-945,5425
1721675039.622359,-31,-39,1031,-7218,498,4672
1721675039.631655,-34,-39,1029,-7315,2047,3561
1721675039.640951,-35,-38,1025,-7446,3500,3185
1721675039.650247,-19,-50,1017,-7533,4873,3360
1721675039.659546,-12,-48,1011,-7665,6265,3745,8270,-40747,68719,84562,34474, 155062.600, 40.0102757,-105.2441455, 1595.144,1616.472, 5.302,3.965
1721675039.668842,-7,-37,1009,-7910,7402,4270
1721675039.678138,4,-30,1011,-8163,8338,4611
1721675039.687434,16,-19,1011,-8417,9152,4873
1721675039.696730,33,-26,1003,-8548,9712,5171
1721675039.706026,37,-19,996,-8610,9887,5127
1721675039.715322,46,-10,994,-8750,9861,5285
1721675039.724618,63,-11,992,-8732,9747,5180
1721675039.733917,69,-3,992,-8706,9441,4480,9020,-40112,69006,84563,34478, 155062.700, 40.0102802,-105.2441460, 1595.473,1616.801, 5.260,3.930
1721675039.743213,80,0,993,-8706,8837,3701
1721675039.752509,95,-10,993,-8680,8163,2782
1721675039.761805,103,-17,988,-8575,7166,1645
1721675039.771101,103,-18,986,-8645,5976,840
1721675039.780397,92,-4,987,-8723,4725,297
1721675039.789693,79,18,993,-8688,3465,183
1721675039.798989,72,27,998,-8382,2511,385
1721675039.808289,63,22,1001,-7638,1785,498,9350,-39929,69177,,, 155062.800, 40.0102871,-105.2441477, 1595.858,1617.186, 5.207,3.898
1721675039.817585,52,36,1006,-6641,1155,682
1721675039.826881,57,41,1014,-5600,866,1548
1721675039.836177,59,42,1021,-4523,752,2108
1721675039.845473,61,40,1025,-3395,551,2318
1721675039.854769,61,28,1029,-2406,315,2353
1721675039.864065,62,21,1031,-1610,-53,2248
1721675039.873361,55,17,1031,-1102,-543,2231
1721675039.882660,55,14,1036,-875,-945,2003,,,,84572,34483
1721675039.891956,51,24,1040,-831,-1243,1601
1721675039.901252,45,37,1045,-883,-1663,1268
1721675039.910548,42,32,1047,-1067,-2100,262
1721675039.919844,33,30,1046,-1216,-2389,-1208
1721675039.929140,20,39,1048,-1417,-2625,-2503
1721675039.938436,12,44,1047,-1645,-2669,-3387
1721675039.947732,5,50,1045,-1653,-2608,-4087
1721675039.957031,2,50,1041,-1443,-2372,-4393,9191,-39697,69329,84565,34485, 155062.900, 40.0102936,-105.2441496, 1596.228,1617.556, 5.154,3.869
1721675039.966327,-4,48,1037,-1032,-1890,-4489
1721675039.975623,-9,44,1032,-411,-1190,-4568
1721675039.984919,-10,38,1024,254,-412,-4612
1721675039.994215,-9,34,1019,1033,630,-4743
1721675040.003511,-9,32,1017,1777,1741,-4725
1721675040.012807,-2,15,1014,2520,2905,-4603
1721675040.022103,8,6,1012,3203,3990,-4664
1721675040.031403,18,3,1011,3553,5040,-4139,9429,-39880,69067,84571,34496, 155063.000, 40.0102998,-105.2441512, 1596.599,1617.927, 5.101,3.840
1721675040.040699,20,-2,1014,3850,5783,-3369
1721675040.049995,18,0,1021,3894,6317,-2678
1721675040.059291,12,13,1023,3772,6728,-1540
1721675040.068587,16,19,1021,3675,7087,-184
1721675040.077883,15,24,1020,3675,7481,953
1721675040.087179,16,28,1018,3842,7936,1863
1721675040.096475,16,42,1022,4113,8461,2528
1721675040.105774,25,29,1022,4367,8951,2852,10327,-40057,68792,,, 155063.100, 40.0103052,-105.2441525, 1596.932,1618.260, 5.052,3.813
1721675040.115070,28,14,1025,4664,9458,2318
1721675040.124366,35,-7,1026,4673,9852,1601
1721675040.133662,50,-33,1025,4340,10097,1050
1721675040.142958,67,-54,1023,3500,9992,603
1721675040.152254,73,-61,1022,2100,9633,253
1721675040.161550,69,-59,1028,315,8820,52
1721675040.170846,63,-45,1031,-1575,7831,253
1721675040.180145,69,-36,1026,-3430,6781,708,10797,-39660,68957,84554,34492
1721675040.189441,68,-5,1023,-4970,5888,1102
1721675040.198737,70,18,1019,-6037,5022,1443
1721675040.208033,76,23,1013,-6448,4410,857
1721675040.217329,81,28,1011,-6361,3963,-97
1721675040.226625,86,39,1007,-5976,3482,-639
1721675040.235921,103,43,999,-5302,3036,-762
1721675040.245217,117,52,992,-4392,2458,-884
1721675040.254578,133,52,988,-3281,1741,-1330,,,,84558,34492, 155063.200, 40.0103088,-105.2441533, 1597.186,1618.514, 5.021,3.792
1721675040.263874,136,51,991,-2100,857,-2214
1721675040.273170,136,48,992,-962,-289,-3535
1721675040.282466,134,43,990,140,-1584,-4673
1721675040.291762,130,35,989,1059,-2967,-5425
1721675040.301058,127,31,991,1812,-4402,-5574
1721675040.310354,130,11,991,2442,-5749,-5425
1721675040.319650,127,4,990,2783,-7088,-5443
1721675040.328949,119,10,989,2897,-8365,-5268,10522,-39874,68701,84574,34501, 155063.300, 40.0103103,-105.2441535, 1597.275,1618.604, 4.998,3.775
1721675040.338245,104,9,991,2914,-9573,-5312
1721675040.347541,90,-11,990,2905,-10422,-5670
1721675040.356837,40,-8,988,2862,-10973,-5767
1721675040.366133,-2,34,989,2582,-11218,-5268
1721675040.375429,1,9,1000,2380,-10667,-5119
1721675040.384725,-16,-19,1004,2687,-9564,-5417
1721675040.394021,-35,-33,1007,2459,-8549,-5250
1721675040.403321,-31,-66,1007,1628,-7140,-4647,9881,-40045,68841,,, 155063.400, 40.0103112,-105.2441532, 1597.335,1618.663, 4.976,3.758
1721675040.412617,-24,-81,1010,534,-5522,-3387
1721675040.421913,-10,-58,1008,-1111,-3859,-1514
1721675040.431209,16,-23,1006,-3106,-2249,210
1721675040.440505,58,9,1007,-4611,-849,1137
1721675040.449801,77,41,1011,-5573,140,1242
1721675040.459097,66,74,1020,-6037,577,358
1721675040.468393,89,50,1025,-5932,735,-1068
1721675040.477692,85,45,1026,-5390,918,-2897,9796,-39837,69030,84563,34507
1721675040.486988,96,60,1027,-5110,918,-4533
1721675040.496284,102,67,1031,-4830,1032,-5548
1721675040.505580,98,37,1030,-4331,822,-7359
1721675040.514876,81,22,1037,-3762,490,-8803
1721675040.524172,112,-11,1026,-3596,236,-8759
1721675040.533468,229,-91,985,-3736,-333,-7202
1721675040.542764,125,-63,972,-4086,-3658,-1112
1721675040.552063,-103,-142,1001,-3780,-13335,10543,9014,-39990,69128,84566,34512, 155063.500, 40.0103112,-105.2441532, 1597.348,1618.676, 4.957,3.744
1721675040.561359,-60,88,1012,-1671,-23223,21945
1721675040.570655,66,184,999,-393,-26959,28455
1721675040.579951,144,262,987,3754,-29138,25418
1721675040.589247,70,193,991,8785,-31982,17158
1721675040.598543,-108,113,1028,13992,-35420,8225
1721675040.607839,-94,65,1042,17702,-36147,2957
1721675040.617135,-48,71,1015,20397,-31973,1260
1721675040.626435,-120,15,1022,21788,-27615,-1619,,,,84565,34510, 155063.600, 40.0103114,-105.2441532, 1597.424,1618.752, 4.939,3.729
1721675040.635731,-65,-74,1023,21954,-23827,-4760
1721675040.645027,-96,-157,1019,20300,-18489,-8243
1721675040.654323,-94,-161,1015,16713,-13860,-7989
1721675040.663619,-93,-145,1018,11839,-9162,-6432
1721675040.672915,-78,-105,1020,6878,-4603,-4165
1721675040.682211,-63,-81,1025,2170,-237,-2757
1721675040.691507,-50,-33,1027,-2082,3587,-2529
1721675040.700867,-39,-17,1033,-5871,7227,-3903,8258,-40612,68750
1721675040.710163,-127,-34,1052,-8820,10578,-6738
1721675040.719459,-64,-10,1056,-11165,13798,-7412
1721675040.728755,-150,-99,1070,-13098,17482,-7744
1721675040.738051,-219,-73,1097,-14595,20378,-9039
1721675040.747347,-296,-178,1110,-16397,23205,-6668
1721675040.756643,-223,-198,1083,-17132,25620,-4585
1721675040.765939,-53,-9,1029,-17745,27702,7017
1721675040.775208,76,87,989,-18103,27851,11681,9722,-39685,69268,84562,34523, 155063.700, 40.0103116,-105.2441531, 1597.425,1618.753, 4.922,3.714
1721675040.784504,261,59,975,-16502,25287,6851
1721675040.793800,273,66,962,-14350,20956,3237
1721675040.803096,253,97,935,-13317,14866,2161
1721675040.812392,276,150,930,-12923,10202,3587
1721675040.821688,199,150,951,-12320,7376,4628
1721675040.830984,136,156,969,-11077,4515,3736
1721675040.840280,147,166,970,-9633,3395,3701
1721675040.849579,90,171,942,-7857,3745,3456,10369,-38983,69628,84570,34523, 155063.800, 40.0103113,-105.2441525, 1597.436,1618.764, 4.905,3.697
1721675040.858875,5,64,986,-6028,3771,-1042
1721675040.868171,-106,-36,1040,-4786,4900,-4822
1721675040.877467,-159,-80,1071,-5180,7061,-3037
1721675040.886763,-68,-24,1057,-6483,10403,-307
1721675040.896059,1,66,1044,-7910,14542,2782
1721675040.905355,48,135,1038,-8172,16738,3088
1721675040.914651,-21,108,1058,-7271,17228,-928
1721675040.923950,34,78,1042,-5110,16887,-7088,10668,-39044,69531,,, 155063.900, 40.0103116,-105.2441523, 1597.508,1618.836, 4.893,3.685
1721675040.933246,152,111,1012,-2730,16800,-9870
1721675040.942542,245,123,995,-726,15592,-13414
1721675040.951838,320,128,983,1514,12827,-17754
1721675040.961134,326,173,950,3719,8610,-20659
1721675040.970430,255,131,942,5767,3141,-24369
1721675040.979726,310,83,986,8007,-2170,-29208
1721675040.989022,-110,145,1107,9599,-7149,-25612
1721675040.998322,-37,163,1125,11769,-11017,-9398,9539,-40496,68566,84563,34527
1721675041.007618,-39,269,1116,14648,-9555,-10439
1721675041.016914,43,192,1069,18725,-8190,-9249
1721675041.026210,79,156,1021,23949,-6537,-11507
1721675041.035506,121,109,987,28062,-6300,-11017
1721675041.044802,134,78,978,30879,-6790,-13309
1721675041.054098,110,47,996,32717,-8120,-16354
1721675041.063394,48,-81,997,34047,-9888,-13668
1721675041.072815,-47,-172,1016,34353,-11157,-13580,,,,84563,34527, 155064.000, 40.0103115,-105.2441521, 1597.554,1618.882, 4.881,3.672
1721675041.082111,-64,-199,996,32708,-11437,-12382
1721675041.091407,-208,-229,1004,29462,-10264,-9870
1721675041.100703,-227,-219,992,25297,-8252,-7114
1721675041.109999,-189,-173,969,20510,-4235,-5872
1721675041.119295,-143,-168,947,15584,323,-4769
1721675041.128591,-136,-241,962,11262,4558,-6047
1721675041.137887,-157,-283,984,7228,8277,-4629
1721675041.147064,-173,-283,1001,2232,11515,2485,9594,-41363,67810,84566,34534, 155064.100, 40.0103116,-105.2441520, 1597.618,1618.946, 4.870,3.659
1721675041.156360,-30,-213,1012,-3683,15032,8426
1721675041.165656,-24,-144,1024,-9581,18235,13816
1721675041.174952,-33,-133,1025,-14498,19521,13343
1721675041.184248,-247,30,1038,-18243,20518,13151
1721675041.193544,21,-61,1001,-20895,22041,20492
1721675041.202840,572,-236,933,-21953,25051,29321
1721675041.212136,386,-244,1003,-25042,23966,21236
1721675041.221436,169,-42,1085,-30301,15811,11287,11474,-39611,68829,,, 155064.200, 40.0103112,-105.2441513, 1597.586,1618.914, 4.856,3.642
1721675041.230732,211,101,1079,-33582,9581,11488
1721675041.240028,191,69,1060,-33171,6116,11226
1721675041.249324,134,9,1057,-30730,2196,9135
1721675041.258620,123,37,1051,-28630,-525,7280
1721675041.267916,123,157,1038,-27107,-2118,7323
1721675041.277212,120,212,1030,-24710,-3203,6256
1721675041.286508,89,221,1028,-20221,-3982,5521
1721675041.295807,106,217,1021,-14560,-4603,4270,11572,-39062,69305,84559,34539
1721675041.305103,90,237,1029,-8566,-4857,2590
1721675041.314399,50,233,1042,-2607,-5207,1373
1721675041.323695,28,159,1053,3465,-5137,1172
1721675041.332991,0,91,1060,8855,-4384,1085
1721675041.342287,63,122,1042,12338,-3010,-70
1721675041.351583,89,78,1034,14359,-1514,-1112
1721675041.360879,93,5,1025,16380,-1120,-2100
1721675041.370178,147,-6,1026,17597,-1514,-2188,11755,-39733,68750,84566,34543, 155064.300, 40.0103119,-105.2441500, 1597.455,1618.783, 4.837,3.623
1721675041.379474,135,-69,1042,17535,-2232,-1400
1721675041.388770,68,-205,1035,16669,-3588,1111
1721675041.398066,24,-83,1028,14000,-4734,4637
1721675041.407362,30,-13,1025,9512,-4988,8085
1721675041.416658,-5,-71,1034,6405,-4489,9266
1721675041.425954,78,-30,1036,4253,-3920,10543
1721675041.435250,37,8,1041,1689,-3317,12066
1721675041.444550,21,35,1042,-113,-3457,10640,,,,84566,34543, 155064.400, 40.0103104,-105.2441494, 1597.334,1618.662, 4.820,3.604
1721675041.453846,39,90,1033,-770,-3098,7472
1721675041.463142,66,69,1022,-472,-2800,5687
1721675041.472438,65,26,1019,762,-2800,3657
1721675041.481734,55,18,1017,1995,-3194,2581
1721675041.491030,68,-4,1003,2800,-3632,1855
1721675041.500326,58,16,995,3290,-3798,1470
1721675041.509622,52,-7,993,3317,-4157,1207
1721675041.518921,39,-23,988,3369,-4253,866,11853,-39739,68786,,, 155064.500, 40.0103095,-105.2441490, 1597.281,1618.609, 4.804,3.587
1721675041.528217,12,0,984,2993,-4218,997
1721675041.537513,8,0,981,2739,-3964,962
1721675041.546809,-18,2,981,2337,-2958,953
1721675041.556105,-33,-17,982,2127,-1654,621
1721675041.565401,24,35,986,1978,-97,805
1721675041.574697,24,29,998,1812,1697,148
1721675041.583993,40,-7,1008,2188,2835,-718
1721675041.593292,60,5,1014,2547,3718,-1348,12097,-39923,68621,84562,34554
1721675041.602588,82,13,1014,2468,4331,-2092
1721675041.611884,81,0,1011,2389,4497,-2389
1721675041.621180,99,14,1005,2345,4182,-2678
1721675041.630476,101,13,1005,2144,3500,-2713
1721675041.639772,112,2,1010,2127,2493,-2625
1721675041.649068,109,-1,1013,2170,1303,-2092
1721675041.658364,103,-1,1015,2065,-140,-1488
1721675041.667664,85,11,1018,1829,-1724,-1418,12103,-39910,68511,84557,34550, 155064.600, 40.0103090,-105.2441486, 1597.219,1618.548, 4.787,3.570
1721675041.676960,64,-26,1014,1532,-3203,-1497
1721675041.686256,8,-24,1011,1409,-4314,-1374
1721675041.695552,-31,-31,1015,832,-5005,-893
1721675041.704848,-101,-95,1000,140,-4620,-1602
1721675041.714144,7,-23,992,-700,-2879,1505
1721675041.723440,15,39,978,-2581,-569,2738
1721675041.732736,17,-32,981,-3500,743,-849
1721675041.742035,-15,-76,995,-3123,1750,-972,12524,-39483,68756,84562,34563, 155064.700, 40.0103086,-105.2441480, 1597.153,1618.481, 4.770,3.552
1721675041.751331,25,0,999,-3692,2651,-377
1721675041.760627,37,-94,988,-4900,4033,87
1721675041.769923,68,-58,970,-5311,4882,-342
1721675041.779219,19,0,981,-7052,4996,3710
1721675041.788515,47,-17,986,-8811,5136,3307
1721675041.797811,69,-2,995,-9598,5801,3578
1721675041.807107,93,5,999,-10360,5906,4156
1721675041.816406,127,-2,999,-10902,5643,3885,,,,,, 155064.800, 40.0103082,-105.2441478, 1597.116,1618.444, 4.743,3.532
1721675041.825702,147,12,997,-11243,4830,3228
1721675041.834998,140,29,1003,-11751,3438,3552
1721675041.844294,103,58,1007,-12153,1732,3465
1721675041.853590,58,124,1021,-12180,192,3867
1721675041.862886,89,82,1011,-11418,-639,3368
1721675041.872182,25,50,1008,-9660,-779,2703
1721675041.881478,-12,119,1030,-8435,-1077,-123
1721675041.890778,-17,126,1047,-7577,-280,-1987,12896,-38793,69177,84561,34570
1721675041.900074,-90,134,1067,-5862,1233,-3168
1721675041.909370,-95,155,1074,-3780,3080,-4130
1721675041.918666,2,-2,1061,-1128,6308,-4927
1721675041.927962,44,-74,1024,1462,9432,-5408
1721675041.937258,101,-66,1007,1637,10998,-4087
1721675041.946554,105,-55,1012,88,11392,-2328
1721675041.955850,69,-78,1011,-1942,10430,-149
1721675041.965149,76,-123,1006,-3955,9143,1645,13568,-38543,69195,84560,34576, 155064.900, 40.0103074,-105.2441469, 1597.017,1618.345, 4.712,3.510
1721675041.974445,170,-33,993,-6273,8207,3631
1721675041.983741,170,138,1002,-9030,6938,5442
1721675041.993037,113,122,1039,-10237,4427,4900
1721675042.002333,118,54,1058,-8443,1916,2791
1721675042.011629,124,72,1056,-6282,280,1067
1721675042.020925,136,32,1045,-4672,-919,-62
1721675042.030221,126,57,1048,-3088,-2048,-219
1721675042.039520,125,38,1059,-2047,-3212,332,13598,-38244,69409,84558,34574, 155065.000, 40.0103081,-105.2441471, 1597.017,1618.345, 4.682,3.489
1721675042.048816,99,37,1071,-962,-4209,455
1721675042.058112,91,40,1062,0,-5102,656
1721675042.067408,88,40,1045,1094,-5618,936
1721675042.076704,69,74,1035,2153,-6064,586
1721675042.086000,96,49,1020,3404,-6274,577
1721675042.095296,60,36,1026,4717,-6449,-455
1721675042.104592,34,17,1025,5644,-6939,-1855
1721675042.113892,16,22,1021,5950,-6834,-2389,13403,-38317,69299,,, 155065.100, 40.0103077,-105.2441474, 1597.002,1618.330, 4.652,3.469
1721675042.123188,-9,23,1016,5810,-6222,-2442
1721675042.132484,-20,16,1008,5670,-5102,-2582
1721675042.141780,9,54,996,5338,-3212,-2625
1721675042.151076,41,21,979,5312,-1225,-3474
1721675042.160372,39,13,969,5767,70,-3177
1721675042.169668,17,9,985,5863,796,-1978
1721675042.178964,28,69,993,5880,1522,-727
1721675042.188263,75,84,992,5705,2528,288,,,,84559,34581
1721675042.197559,88,44,995,6195,3377,761
1721675042.206855,85,55,1005,7202,3307,1023
1721675042.216151,105,45,999,7552,3246,682
1721675042.225447,98,19,998,7709,3158,-167
1721675042.234743,76,0,997,7674,2686,-613
1721675042.244039,43,-6,996,6965,2423,-727
1721675042.253335,44,18,992,5898,2441,-333
1721675042.262696,74,10,986,4900,3045,-88,13745,-38684,68896,84560,34588, 155065.200, 40.0103074,-105.2441474, 1597.016,1618.344, 4.625,3.450
1721675042.271992,106,-26,1000,4262,3701,-630
1721675042.281288,115,-31,986,3579,3815,-858
1721675042.290584,117,-20,989,2529,3158,70
1721675042.299880,88,9,997,1190,2170,857
1721675042.309176,81,16,996,-131,1312,1715
1721675042.318472,47,33,999,-962,691,1837
1721675042.327768,66,54,988,-1426,367,1513
1721675042.337067,59,91,1007,-1417,525,1260,14099,-38629,68859,84566,34585, 155065.300, 40.0103067,-105.2441472, 1596.969,1618.297, 4.598,3.430
1721675042.346363,77,45,1000,-586,577,1058
1721675042.355659,36,62,996,823,752,1277
1721675042.364955,39,86,1017,1995,743,936
1721675042.374251,75,65,993,3264,1356,1347
1721675042.383547,69,43,1001,4725,1671,918
1721675042.392843,51,10,984,5767,1487,472
1721675042.402139,81,8,977,6397,1207,507
1721675042.411438,63,20,981,6309,1032,-210,14367,-38922,68560,,, 155065.400, 40.0103062,-105.2441470, 1596.929,1618.257, 4.572,3.412
1721675042.420734,64,3,965,6073,901,61
1721675042.430030,117,-53,954,6055,796,428
1721675042.439326,187,-101,962,5618,700,-35
1721675042.448622,143,-43,977,4122,-543,61
1721675042.457918,184,-15,971,1602,-2844,-560
1721675042.467214,187,-13,938,-700,-4900,43
1721675042.476510,59,-18,959,-2432,-7578,-359
1721675042.485810,25,-76,925,-3850,-9538,-709,14276,-38824,68792,84560,34597
1721675042.495106,-56,-25,948,-5092,-9547,-184
1721675042.504402,-75,19,988,-6868,-7998,-1147
1721675042.513698,-55,61,1032,-7542,-4472,-560
1721675042.522994,-67,82,1030,-7096,-394,-665
1721675042.532290,-54,130,1018,-5442,3780,-2363
1721675042.541586,-47,108,1022,-3018,8058,-4480
1721675042.550882,-20,86,1082,-140,12040,-7079
1721675042.560181,22,59,1081,2459,15697,-7202,15527,-39202,68145,84560,34599, 155065.500, 40.0103056,-105.2441468, 1596.921,1618.249, 4.547,3.395
1721675042.569477,49,16,1097,4752,18768,-7543
1721675042.578773,35,48,1092,6099,20991,-7307
1721675042.588069,79,49,1095,6773,22566,-5942
1721675042.597365,114,-1,1115,7665,23957,-4507
1721675042.606661,155,-5,1114,8742,24342,-2135
1721675042.615957,198,-17,1110,9039,23432,-97
1721675042.625253,202,-4,1095,8689,21297,1102
1721675042.634552,199,16,1092,7902,17902,2073,,,,84563,34603, 155065.600, 40.0103048,-105.2441465, 1596.861,1618.189, 4.522,3.378
1721675042.643848,178,39,1072,7184,14070,2476
1721675042.653144,138,57,1041,6825,10132,1277
1721675042.662440,139,5,1051,6895,6431,-385
1721675042.671736,124,14,1036,7342,3736,-1925
1721675042.681032,180,4,1011,7508,1855,-1628
1721675042.690328,224,-36,981,7639,385,-3264
1721675042.699624,234,-37,957,7604,-1882,-3903
1721675042.708924,234,-100,953,6703,-5093,-3632,15802,-39636,67706,,, 155065.700, 40.0103036,-105.2441461, 1596.780,1618.108, 4.499,3.362
1721675042.718220,227,-60,946,5434,-8523,-3028
1721675042.727516,210,-61,950,3395,-11970,-123
1721675042.736812,244,-68,885,1645,-15260,1636
1721675042.746108,146,-11,917,44,-18087,2362
1721675042.755404,36,0,998,-1793,-20563,656
1721675042.764700,-7,-6,1006,-2458,-21237,1662
1721675042.773996,14,8,997,-2467,-19749,1793
1721675042.783295,16,-17,987,-2572,-17343,437,15087,-39477,68139,84559,34601
1721675042.792591,26,-5,990,-2406,-15085,437
1721675042.801887,74,-12,1002,-2572,-12968,1207
1721675042.811183,104,-18,1000,-2765,-11157,1093
1721675042.820479,119,-45,994,-3027,-10352,717
1721675042.829775,133,-19,973,-3701,-10247,1225
1721675042.839071,350,-165,855,-4917,-10527,2248
1721675042.848367,-141,-49,941,-5932,-12312,-105
1721675042.857666,263,25,948,-9213,-15287,-1208,14361,-38977,68695,84559,34603, 155065.800, 40.0103038,-105.2441463, 1596.780,1618.108, 4.480,3.348
1721675042.866962,-30,84,973,-11628,-13493,971
1721675042.876258,102,47,967,-12162,-15287,-849
1721675042.885554,11,-38,996,-11436,-13537,-1995
1721675042.894850,7,21,1015,-10797,-13160,-3500
1721675042.904146,-20,10,1045,-11873,-11638,-3807
1721675042.913442,-30,13,1064,-12888,-9704,-4918
1721675042.922738,-39,40,1076,-14131,-7832,-5294
1721675042.932038,-51,57,1085,-15128,-5469,-5364,14263,-38214,69256,84565,34610, 155065.900, 40.0103034,-105.2441461, 1596.763,1618.091, 4.460,3.338
1721675042.941334,-60,85,1098,-15330,-2835,-6160
1721675042.950630,-41,93,1112,-14883,262,-7630
1721675042.959926,-28,50,1119,-13483,3596,-9302
1721675042.969222,-1,0,1108,-11646,6790,-10124
1721675042.978518,55,-54,1087,-10263,9546,-9179
1721675042.987814,60,-57,1064,-9730,11313,-6843
1721675042.997110,61,34,1068,-10368,11751,-4480
1721675043.006409,93,78,1078,-10946,11663,-2459,,,,,, 155066.000, 40.0103021,-105.2441456, 1596.652,1617.981, 4.440,3.329
1721675043.015705,119,158,1078,-9983,11025,-1182
1721675043.025001,137,100,1077,-7385,9913,-1173
1721675043.034297,100,45,1069,-3430,8382,-1628
1721675043.043593,92,13,1068,-105,6860,-2354
1721675043.052889,145,8,1031,1960,6203,-2818
1721675043.062185,153,26,1030,2967,5748,-3019
1721675043.071481,120,25,1042,3535,4357,-2678
1721675043.080780,79,42,1076,4183,2380,-2678,14770,-38092,69256,84563,34612
1721675043.090076,96,77,1059,4865,822,-2862
1721675043.099372,85,61,1020,5758,-9,-3737
1721675043.108668,54,84,995,7070,-867,-5040
1721675043.117964,31,80,986,8400,-1330,-6090
1721675043.127260,9,45,972,9923,-1278,-7630
1721675043.136556,40,88,969,11358,-613,-8558
1721675043.145852,18,23,970,12382,411,-9267
1721675043.155152,24,23,971,13642,1190,-9538,14587,-38854,68737,84563,34614, 155066.100, 40.0103018,-105.2441453, 1596.653,1617.981, 4.422,3.319
1721675043.164448,65,-4,966,13869,2213,-9162
1721675043.173744,106,-11,959,13537,2843,-8925
1721675043.183040,122,-26,961,12495,2642,-8129
1721675043.192336,112,-35,961,11060,1592,-6930
1721675043.201632,86,-36,972,9100,280,-5172
1721675043.210928,65,-19,985,6782,-937,-3894
1721675043.220224,67,-26,977,4428,-1637,-3072
1721675043.229523,48,-5,980,2275,-1882,-2144,14532,-38916,68634,84563,34623, 155066.200, 40.0103014,-105.2441451, 1596.640,1617.968, 4.404,3.310
1721675043.238819,52,14,994,228,-2030,-1129
1721675043.248115,48,28,1010,-1312,-1829,-718
1721675043.257411,40,29,1017,-2362,-1540,-1050
1721675043.266707,59,3,1016,-3220,-1103,-1838
1721675043.276003,79,11,1016,-3928,-499,-2389
1721675043.285299,99,8,1013,-4777,-368,-2704
1721675043.294595,132,-24,1014,-5521,-630,-1908
1721675043.303894,117,-9,1015,-6238,-1549,-289,14508,-38354,68957,,, 155066.300, 40.0103001,-105.2441447, 1596.530,1617.859, 4.384,3.301
1721675043.313190,102,6,1015,-7096,-3045,1662
1721675043.322486,77,19,1017,-7665,-4279,3657
1721675043.331782,56,29,1026,-7831,-5180,5031
1721675043.341078,48,53,1037,-7630,-5513,5495
1721675043.350374,49,54,1039,-7131,-5294,4847
1721675043.359670,67,28,1042,-6168,-4865,4086
1721675043.368966,32,10,1051,-5311,-4673,3368
1721675043.378266,79,7,1048,-4655,-4568,2773,,,,84565,34632
1721675043.387562,129,46,1049,-4506,-4209,1846
1721675043.396858,201,43,1067,-4252,-4524,717
1721675043.406154,119,72,1060,-3657,-6362,2082
1721675043.415450,121,35,1050,-2555,-8882,2362
1721675043.424746,87,7,1055,-1181,-10430,3097
1721675043.434042,32,-81,1058,-411,-11752,2983
1721675043.443338,16,-28,1050,-875,-12075,2353
1721675043.452637,1,-62,1035,-2406,-11279,1688,14227,-38079,69317,84562,34630, 155066.400, 40.0102985,-105.2441443, 1596.424,1617.752, 4.365,3.291
1721675043.461933,-12,-10,1021,-3806,-10168,1242
1721675043.471229,-14,-11,1010,-5232,-8715,131
1721675043.480525,-27,8,1003,-5906,-6939,-665
1721675043.489821,-26,10,997,-6247,-5119,-1960
1721675043.499117,-17,19,987,-6326,-3010,-3570
1721675043.508413,2,43,979,-6378,-980,-4542
1721675043.517709,21,73,971,-6326,761,-4725
1721675043.527039,30,92,965,-5862,2065,-4428,14056,-37738,69567,84569,34634, 155066.500, 40.0102964,-105.2441432, 1596.325,1617.653, 4.341,3.281
1721675043.536335,43,92,963,-4751,2983,-3737
1721675043.545631,57,87,963,-3246,3745,-2757
1721675043.554927,63,96,959,-1732,4112,-1899
1721675043.564223,75,92,957,-630,4620,-1322
1721675043.573519,90,89,958,438,4725,-1068
1721675043.582815,123,69,964,1295,4620,-1112
1721675043.592111,126,65,975,1978,4051,-1155
1721675043.601471,123,48,981,2118,2948,-1418,14239,-37878,69482,,, 155066.600, 40.0102942,-105.2441428, 1596.254,1617.582, 4.317,3.271
1721675043.610767,112,41,988,1952,1758,-1890
1721675043.620063,96,38,997,1295,472,-2529
1721675043.629359,83,39,1007,473,-604,-2879
1721675043.638655,75,37,1018,-560,-1348,-3037
1721675043.647951,67,41,1032,-1478,-1820,-2932
1721675043.657247,64,47,1049,-2362,-1882,-2564
1721675043.666543,69,47,1058,-3036,-1637,-1917
1721675043.675842,70,52,1061,-3491,-1217,-1182,14233,-37652,69659,84561,34646
1721675043.685138,64,58,1063,-3788,-805,-333
1721675043.694434,69,73,1064,-3963,-560,131
1721675043.703730,65,76,1067,-3771,-368,192
1721675043.713026,72,69,1067,-3158,-307,122
1721675043.722322,73,70,1071,-2406,-167,-245
1721675043.731618,70,70,1068,-1461,-245,-412
1721675043.740914,63,69,1069,-490,-420,-280
1721675043.750214,62,65,1070,499,-613,-455,14099,-37823,69580,84564,34648, 155066.700, 40.0102934,-105.2441430, 1596.236,1617.564, 4.301,3.262
1721675043.759510,66,57,1067,1610,-779,-700
1721675043.768806,82,56,1062,2625,-963,-1024
1721675043.778102,90,71,1055,3483,-1252,-1759
1721675043.787398,107,64,1049,4288,-1742,-2538
1721675043.796694,112,49,1045,5443,-2599,-2958
1721675043.805990,96,33,1037,6650,-3728,-3395
1721675043.815286,75,32,1031,7525,-5014,-3684
1721675043.824585,79,33,1030,7980,-5985,-4060,,,,84556,34650, 155066.800, 40.0102930,-105.2441428, 1596.137,1617.465, 4.288,3.255
1721675043.833881,73,55,1031,8339,-6607,-4270
1721675043.843177,129,-200,701,8654,-7123,-4690
1721675043.852473,-752,-44,377,8917,-7762,-5058
1721675043.861769,-77,299,781,5495,-4988,-3973
1721675043.871065,15,238,925,4673,8207,-2328
1721675043.880361,50,153,913,10369,13011,-5793
1721675043.889657,-67,31,951,16328,15548,-7630
1721675043.898987,104,54,1057,18200,16913,-5933,14312,-38531,69073,,, 155066.900, 40.0102917,-105.2441423, 1596.025,1617.353, 4.270,3.245
1721675043.908283,74,3,1123,16319,18366,-3159
1721675043.917579,72,-104,1150,13720,17806,-1838
1721675043.926875,107,-141,1158,10072,17482,385
1721675043.936171,109,-213,1137,4612,16642,2240
1721675043.945467,60,-98,1102,-1907,15251,3421
1721675043.954763,140,-35,1070,-9301,13991,3211
1721675043.964059,25,-8,1035,-14070,12661,4165
1721675043.973328,-101,-160,1022,-16747,10255,3841,15447,-37799,69189,84561,34652
1721675043.982624,43,46,1007,-17955,9371,3841
1721675043.991920,127,84,1002,-19792,10552,6702
1721675044.001216,138,67,1005,-20746,9835,7962
1721675044.010512,114,131,994,-20667,7717,10185
1721675044.019808,141,189,982,-19932,5670,11655
1721675044.029104,209,113,988,-17613,3858,11042
1721675044.038400,163,89,1003,-13973,1688,9616
1721675044.047699,194,118,1051,-10963,-1173,10955,15924,-36767,69769,84568,34661, 155067.000, 40.0102906,-105.2441422, 1595.971,1617.299, 4.251,3.234
1721675044.056995,238,86,963,-8802,-2940,11996
1721675044.066291,154,-63,979,-6492,-4795,10771
1721675044.075587,86,-41,967,-5468,-7315,9922
1721675044.084883,37,60,974,-6895,-8182,9808
1721675044.094179,51,101,1059,-8295,-7639,8566
1721675044.103475,48,46,1057,-8400,-6038,5521
1721675044.112771,17,27,999,-7568,-5023,4576
1721675044.122071,-4,9,983,-7297,-3789,4147,16400,-35980,70080,,, 155067.100, 40.0102906,-105.2441422, 1595.944,1617.272, 4.239,3.227
1721675044.131367,-23,26,1001,-7673,-2380,4007
1721675044.140663,-64,46,1017,-8408,-412,4366
1721675044.149959,-72,86,1016,-9301,2082,4620
1721675044.159255,-9,113,1009,-9852,5083,4305
1721675044.168551,59,147,985,-9896,7656,4095
1721675044.177847,157,195,950,-9450,8811,4068
1721675044.187143,47,210,992,-8365,8093,3473
1721675044.196442,-72,3,1084,-6483,5783,1382,,,,84565,34666
1721675044.205738,-55,-47,1102,-4523,5582,2371
1721675044.215034,-8,-16,1061,-5678,7638,4453
1721675044.224330,41,-41,1018,-8601,10342,4935
1721675044.233626,158,-43,1005,-10920,12258,5871
1721675044.242922,107,111,1032,-13492,12932,8863
1721675044.252218,102,51,1021,-15443,11462,7770
1721675044.261514,145,-1,1034,-14927,10578,6098
1721675044.270905,157,80,1045,-14971,9922,7227,17492,-35003,70416,84567,34663, 155067.200, 40.0102902,-105.2441422, 1595.935,1617.263, 4.228,3.222
1721675044.280201,153,100,1048,-15505,9056,6685
1721675044.289497,169,164,1074,-15172,8373,5958
1721675044.298793,231,249,1071,-14078,7848,6938
1721675044.308089,345,372,991,-11471,6895,8365
1721675044.317385,335,458,940,-6352,4523,8951
1721675044.326681,317,510,917,1365,227,9003
1721675044.335977,301,264,884,11533,-4192,8933
