;Title, http://www.gcdataconcepts.com, LSM6DSM, BMP384, GPS
;Version, 2585, Build date, Feb  9 2024,  SN:CCDC2023B942042
;Start_time, 2024-07-22, 19:56:23.135
;Uptime, 5,sec,  Vbat, 4062, mv, EOL, 3500, mv
;Deadband, 0, counts
;DeadbandTimeout, 0.000,sec
;BMP384, SI, 0.100,sec, Units, Pa, mdegC
;Alt Trigger disabled
;LSM6DSM, SR,104,Hz, Units, mG, mdps, fullscale gyro 250dps, accel 4g
;Magnetometer, SR,10,Hz, Units, nT, Temperature, 30,degC
;CAM_M8 Gps, SR,10,Hz
;Gps Sats, TOW, 158199000, ver, 1, numSat, 21
;, gnssId, svId, cno, elev, azmith, prRes, flags,inUse
;, GPS, 008, 00, 14, 319, 0, 0x00001911
;, GPS, 010, 00, 49, 285, 0, 0x00001911
;, GPS, 013, 00, 01, 036, 0, 0x00001911
;, GPS, 015, 00, 27, 049, 0, 0x00001911
;, GPS, 016, 00, 00, 261, 0, 0x00001911
;, GPS, 018, 00, 58, 117, 0, 0x00001911
;, GPS, 023, 00, 70, 357, 0, 0x00001911
;, GPS, 024, 00, 29, 100, 0, 0x00001911
;Time, Ax, Ay, Az, Gx, Gy, Gz, Mx, My, Mz, P, T, TOW, Lat,Lon, Height(m), MSL(m), hdop(m), vdop(m)
1721678183.197173,-11,-17,1094,3194,-8287,7997,16986,40002,73034,84526,32934, 158199.123, 40.0104526,-105.2440590, 1587.233,1608.561, 280976.704,198680.528
1721678183.206423,-14,14,1081,12189,-359,84761
1721678183.215673,-16,0,1081,11122,411,86668
1721678183.224923,-11,-4,1089,10500,1102,87675
1721678183.234173,-13,-16,1113,9337,1846,88698
1721678183.243423,-29,-54,1158,7770,2467,88725
1721678183.252673,-40,-41,1190,5697,3010,89565
1721678183.261923,-43,-18,1200,2512,3850,92610
1721678183.650818,-42,1,1202,-770,4900,94088,12689,40551,72894,84527,32949
1721678183.660068,-60,-16,1188,-3850,6037,92286
1721678183.669318,25,200,1130,-6833,7070,88961
1721678183.678568,33,229,1075,-9677,8277,85128
1721678183.687818,138,306,1012,-10062,8566,79467
1721678183.697068,168,298,957,-8636,7700,71548
1721678183.706318,193,294,916,-5398,4462,65213
1721678183.715568,205,269,898,-2108,560,62877
1721678183.724823,165,206,900,1567,-3745,65791,,,,84529,32947, 158204.600, 40.0104526,-105.2440590, 1587.233,1608.561, 5702.316,4032.146
1721678183.734073,100,146,924,5137,-8260,73141
1721678183.743323,67,153,948,7245,-11489,80570
1721678183.752573,28,174,958,7814,-13125,84262
1721678183.761823,-1,167,957,8628,-13922,83291
1721678183.771073,-69,201,956,9879,-14263,81156
1721678183.780323,-57,200,964,11078,-14184,80071
1721678183.789573,-62,171,959,13423,-12627,81130
1721678183.798829,-66,126,956,15820,-11892,82363,7476,39782,73406,84533,32949, 158204.700, 40.0104526,-105.2440590, 1587.233,1608.561, 5702.323,4032.151
1721678183.808079,-55,98,957,17273,-11367,81016
1721678183.817329,-55,72,959,17903,-10833,80368
1721678183.826579,-87,-9,966,18130,-10387,77796
1721678183.835829,-102,-89,989,18017,-9818,74340
1721678183.845079,-90,-93,1004,16468,-8155,78417
1721678183.854329,-82,-56,1011,13195,-6029,85251
1721678183.863579,-73,-19,1011,9512,-4174,86581
1721678183.872834,-65,21,999,6589,-2503,82608,2557,37731,74133,,, 158204.800, 40.0104526,-105.2440590, 1587.233,1608.561, 5702.323,4032.151
1721678183.882084,-54,59,980,4472,-1085,77061
1721678183.891334,-55,87,958,3395,70,70271
1721678183.900584,-62,109,944,3264,813,64925
1721678183.909834,-74,101,945,3990,1575,62168
1721678183.919084,-85,70,953,5259,2380,60908
1721678183.928334,-75,60,964,6335,3395,60768
1721678183.937584,-54,72,967,6563,4593,62956
1721678183.946839,-32,87,973,6528,5643,66368,-708,35888,74676,84530,32944
1721678183.956089,-12,111,974,6580,6116,67891
1721678183.965339,11,139,974,6764,6168,66351
1721678183.974589,25,146,972,7385,5827,61888
1721678183.983839,31,151,971,8628,5013,55203
1721678183.993089,44,157,966,10177,3850,48300
1721678184.002339,49,151,966,11997,2581,42805
1721678184.011589,44,117,973,14202,1111,39445
1721678184.020844,37,81,984,16485,-473,37616,-3125,33233,75537,84529,32958, 158204.899, 40.0102613,-105.2441103, 1587.233,1608.561, 692.959,707.107
1721678184.030094,50,46,987,18192,-1960,36916
1721678184.039344,75,21,983,19180,-3080,37625
1721678184.048594,92,3,980,19732,-4332,38613
1721678184.057844,92,-8,976,20055,-6169,37450
1721678184.067094,80,-39,985,20309,-8190,33985
1721678184.076344,58,-87,1000,20677,-10142,29435
1721678184.085594,42,-131,1013,20808,-11612,25742
1721678184.094849,40,-87,1044,20353,-12644,24211,-6066,30371,76196,84528,32951, 158204.999, 40.0102830,-105.2441194, 1584.832,1606.160, 759.486,589.579
1721678184.104099,12,-104,1008,18839,-13353,25313
1721678184.113349,45,-100,1020,18620,-14009,28463
1721678184.122599,13,-189,1033,19294,-14692,32891
1721678184.131849,0,-203,1025,18900,-15689,40005
1721678184.141099,-23,-211,1035,17404,-16669,45202
1721678184.150349,-44,-211,1050,15287,-17150,45552
1721678184.159599,-60,-229,1059,12933,-17115,39340
1721678184.168976,-59,-234,1072,10150,-16363,26075
1721678184.178226,-72,-216,1085,7053,-15304,16065
1721678184.187476,-73,-208,1093,4463,-14324,13720
1721678184.196726,-86,-181,1096,2240,-13152,13676
1721678184.205976,-89,-126,1089,-210,-11865,13256
1721678184.215226,-98,-64,1079,-2406,-10422,11480
1721678184.224476,-96,-23,1070,-3491,-8899,9327
1721678184.233726,-93,-13,1067,-3421,-7158,6903
1721678184.242859,-86,-10,1072,-2546,-5443,6107,-7794,29156,76422,84523,32951, 158205.100, 40.0102359,-105.2441252, 1584.869,1606.197, 629.628,548.332
1721678184.252109,-66,-5,1077,-1697,-3745,6413
1721678184.261359,-55,31,1077,-1085,-2100,6816
1721678184.270609,-55,49,1073,-630,-788,7306
1721678184.279859,-35,62,1067,377,603,5180
1721678184.289109,-19,48,1054,2057,2003,4331
1721678184.298359,-12,22,1050,4052,3071,6466
1721678184.307609,-14,14,1056,5775,3893,9065
1721678184.316864,-15,15,1063,6808,4786,9327,-8392,27770,76971,84530,32953, 158205.200, 40.0102541,-105.2441424, 1582.414,1603.742, 532.129,496.547
1721678184.326114,-14,-29,1063,7770,5827,8050
1721678184.335364,2,-107,1078,9048,7113,7945
1721678184.344614,-17,-166,1095,9739,8478,14595
1721678184.353864,-17,-218,1113,8987,9563,20387
1721678184.363114,-3,-265,1124,6694,11287,18550
1721678184.372364,8,-240,1114,3107,13335,15785
1721678184.381614,19,-177,1090,-1181,15146,17701
1721678184.390870,40,-126,1050,-4690,16730,20046,-8306,26336,77691,,, 158205.300, 40.0102454,-105.2441514, 1583.457,1604.785, 480.571,471.460
1721678184.400120,64,-82,1011,-6860,18042,19897
1721678184.409370,91,-92,989,-7743,18943,18427
1721678184.418620,128,-121,978,-7385,19258,15802
1721678184.427870,163,-175,977,-6737,18996,16467
1721678184.437120,201,-196,979,-6737,17806,20475
1721678184.446370,235,-232,976,-8076,16047,21315
1721678184.455620,230,-248,982,-10202,13623,18567
1721678184.464875,268,-175,977,-13273,10815,18462,-8636,25714,77673,84528,32953
1721678184.474125,238,-141,970,-16738,8216,18541
1721678184.483375,216,-111,974,-19241,5372,13746
1721678184.492625,210,-78,979,-20860,3158,12608
1721678184.501875,199,-61,985,-22041,1461,16432
1721678184.511125,181,-61,994,-22881,-53,19293
1721678184.520375,160,-65,999,-23633,-1540,21910
1721678184.529625,138,-63,999,-24876,-2713,23940
1721678184.538880,125,-69,1009,-26600,-3317,24727,-9948,26220,76977,84525,32960, 158205.400, 40.0101933,-105.2442339, 1591.424,1612.752, 249.092,128.253
1721678184.548130,112,-56,1012,-28551,-3684,25270
1721678184.557380,105,-15,1001,-30756,-3929,25532
1721678184.566630,80,50,990,-32856,-3903,25620
1721678184.575880,57,89,988,-33766,-3728,25690
1721678184.585130,38,107,990,-33057,-3142,24255
1721678184.594380,9,116,992,-31473,-2030,20790
1721678184.603630,11,176,988,-29540,-490,16598
1721678184.612885,19,151,986,-27212,1636,12486,,,,84532,32955, 158205.500, 40.0100376,-105.2442135, 1590.014,1611.342, 119.014,73.538
1721678184.622135,69,138,982,-23730,3876,10228
1721678184.631385,101,67,983,-20151,5713,9843
1721678184.640635,144,21,983,-17307,6658,7113
1721678184.649885,180,8,975,-15820,7026,5880
1721678184.659135,206,-16,974,-15286,6702,4987
1721678184.668385,223,-36,987,-15067,5853,4121
1721678184.677635,224,-20,997,-15085,4602,5941
1721678184.686890,220,12,1002,-15330,3228,9353,-10284,26281,76977,,, 158205.600, 40.0100679,-105.2442188, 1589.999,1611.327, 108.717,72.176
1721678184.696140,218,31,1001,-15303,2021,11007
1721678184.705390,208,33,1000,-14656,901,10893
1721678184.714640,207,30,1002,-13580,-298,10263
1721678184.723890,206,29,1006,-12407,-1470,10753
1721678184.733140,189,18,1013,-11331,-2678,11908
1721678184.742390,181,16,1014,-10403,-3955,12705
1721678184.751640,177,19,1018,-9686,-4953,14210
1721678184.760895,172,46,1013,-9240,-5775,15566,-11370,25500,76660,84523,32960
1721678184.770145,180,75,1003,-8898,-6318,14271
1721678184.779395,189,93,993,-8181,-6825,12101
1721678184.788645,193,101,987,-7026,-7482,9336
1721678184.797895,185,99,990,-5372,-8523,6291
1721678184.807145,159,98,998,-3622,-9748,4331
1721678184.816395,120,85,1013,-1986,-10824,3325
1721678184.825645,95,71,1031,-490,-11393,2703
1721678184.834900,92,77,1042,657,-11060,3657,-12768,24310,76593,84527,32966, 158205.700, 40.0100853,-105.2442400, 1587.753,1609.081, 91.474,64.393
1721678184.844150,88,88,1042,1479,-10220,5853
1721678184.853400,91,74,1042,2582,-9415,7358
1721678184.862650,114,62,1039,3745,-8663,7192
1721678184.871900,132,61,1031,4664,-8033,6238
1721678184.881150,146,53,1020,5408,-7928,4838
1721678184.890400,141,32,1016,6204,-8339,2677
1721678184.899650,125,-8,1025,6957,-8908,1093
1721678184.908905,100,-26,1048,7613,-9197,586,-13421,22882,76678,84527,32971, 158205.800, 40.0101189,-105.2442668, 1587.914,1609.242, 81.245,58.363
1721678184.918155,42,-94,1075,7578,-9100,-2197
1721678184.927405,-11,-146,1111,6790,-8007,-11052
1721678184.936655,-8,-145,1124,4585,-5355,-15435
1721678184.945905,17,-105,1113,1689,-1435,-10107
1721678184.955155,58,-62,1091,-568,2397,1837
1721678184.964405,117,-41,1059,-2100,5398,9607
1721678184.973655,159,-38,1033,-3176,7183,6702
1721678184.982911,205,-28,1005,-3963,7420,227,,,,,, 158205.900, 40.0101534,-105.2442777, 1588.334,1609.662, 72.151,51.882
1721678184.992161,268,29,975,-4480,6588,-2739
1721678185.001411,291,19,947,-4672,4751,-3632
1721678185.010661,299,0,945,-4025,1750,-13642
1721678185.019911,295,-42,957,-3255,-1777,-20370
1721678185.029161,274,-68,979,-2817,-5067,-20195
1721678185.038411,256,-57,994,-3368,-7797,-19854
1721678185.047661,245,-33,995,-4760,-9897,-19924
1721678185.056916,246,3,987,-6177,-11463,-19522,-13610,22521,76715,84529,32969
1721678185.066166,244,50,978,-7323,-12749,-19347
1721678185.075416,219,98,974,-7927,-14350,-19574
1721678185.084666,190,125,971,-7761,-16302,-21805
1721678185.093916,153,152,965,-6965,-17973,-25419
1721678185.103166,113,138,970,-5643,-19408,-27563
1721678185.112416,77,105,979,-3701,-20344,-29120
1721678185.121666,45,97,987,-2065,-20554,-27502
1721678185.130921,33,91,990,-1076,-20064,-23433,-14721,22625,76202,84526,32975, 158206.000, 40.0100917,-105.2442536, 1583.354,1604.682, 64.088,46.649
1721678185.140171,23,70,994,-192,-19023,-20414
1721678185.149421,23,44,997,665,-17807,-18752
1721678185.158671,28,19,998,963,-16459,-18428
1721678185.167921,30,8,1003,683,-15322,-19154
1721678185.177171,-4,6,1006,-17,-14420,-21123
1721678185.186421,-6,-26,1011,-1041,-13720,-24754
1721678185.195671,-15,-30,1022,-2257,-12390,-28237
1721678185.204926,-24,-32,1035,-3797,-10947,-28307,-15356,22747,75878,84525,32966, 158206.100, 40.0100626,-105.2442374, 1582.044,1603.372, 57.064,41.073
1721678185.214176,-20,-22,1043,-5302,-9398,-27353
1721678185.223426,-8,3,1039,-6903,-7534,-27939
1721678185.232676,2,29,1026,-8435,-5705,-29619
1721678185.241926,18,37,1018,-9170,-4253,-32533
1721678185.251176,37,53,1015,-9371,-3010,-36103
1721678185.260426,51,50,1018,-9336,-2179,-38430
1721678185.269676,69,29,1031,-8863,-1750,-39673
1721678185.278931,92,26,1039,-8461,-1558,-40915,-14801,24017,75677,,, 158206.200, 40.0100955,-105.2442377, 1581.832,1603.160, 52.462,37.152
1721678185.288181,120,51,1041,-8785,-1444,-43864
1721678185.297431,157,90,1035,-9380,-1479,-47828
1721678185.306681,186,108,1029,-9161,-1960,-52045
1721678185.315931,200,116,1023,-8251,-3168,-57890
1721678185.325181,199,117,1015,-7052,-4883,-64278
1721678185.334431,180,119,1009,-5582,-6808,-69169
1721678185.343681,159,107,1009,-3990,-8838,-70945
1721678185.352936,162,114,1008,-2345,-10282,-69108,-14495,25122,75250,84534,32971
1721678185.362186,161,124,1005,-953,-11227,-65625
1721678185.371436,149,115,1000,412,-12285,-63438
1721678185.380686,120,94,1002,1995,-13458,-61364
1721678185.389936,95,95,1003,3422,-14630,-57190
1721678185.399186,71,104,1003,4279,-15462,-53288
1721678185.408436,33,93,1006,5014,-15969,-53865
1721678185.417686,-9,91,1013,5565,-16249,-58083
1721678185.426941,-46,93,1023,5950,-15812,-62038,,,,84536,32973, 158206.300, 40.0101421,-105.2442468, 1583.359,1604.687, 48.107,33.797
1721678185.436191,-66,97,1031,6458,-14543,-64313
1721678185.445441,-74,78,1041,7263,-12600,-64549
1721678185.454691,-71,57,1046,8182,-10352,-63797
1721678185.463941,-72,44,1045,8654,-8112,-62738
1721678185.473191,-70,27,1044,8698,-6012,-62887
1721678185.482441,-66,9,1042,8409,-4052,-65477
1721678185.491691,-67,-17,1039,7674,-2144,-69598
1721678185.501038,-59,-28,1041,6694,-412,-73229,-13562,26220,75415,84527,32971, 158206.400, 40.0101971,-105.2442650, 1587.886,1609.214, 45.350,32.410
1721678185.510288,-38,-13,1034,5137,1478,-76257
1721678185.519538,-24,-2,1024,3282,3211,-78689
1721678185.528788,-1,4,1025,1812,4497,-80063
1721678185.538038,59,-1,1025,718,5477,-80640
1721678185.547288,109,0,1018,-332,6133,-80710
1721678185.556538,145,5,1003,-1758,5722,-81962
1721678185.565788,171,27,986,-3272,4348,-83825
1721678185.575043,187,52,966,-4663,2406,-85007,-11328,28381,75531
1721678185.584293,170,79,954,-5626,-9,-84867
1721678185.593543,144,86,956,-5888,-2459,-82539
1721678185.602793,133,86,966,-5328,-4463,-77884
1721678185.612043,112,82,976,-4690,-5968,-74533
1721678185.621293,87,73,994,-4515,-6974,-73842
1721678185.630543,75,99,1003,-4707,-7595,-73334
1721678185.639793,69,124,1000,-4952,-7779,-71838
1721678185.649048,64,119,998,-4663,-7700,-71050,-9826,30236,75341,84532,32982, 158206.500, 40.0102760,-105.2442921, 1593.275,1614.603, 42.998,31.242
1721678185.658298,36,101,1001,-3858,-7840,-70079
1721678185.667548,12,122,1008,-3088,-8077,-68303
1721678185.676798,-9,142,1011,-2712,-7893,-66912
1721678185.686048,-24,137,1016,-1837,-7263,-65135
1721678185.695298,-29,118,1022,-463,-6248,-63412
1721678185.704548,-10,93,1032,893,-5058,-61784
1721678185.713798,-18,59,1042,1873,-3894,-61487
1721678185.723053,-15,48,1054,2162,-2975,-61373,-8087,31494,75457,84527,32971, 158206.600, 40.0103173,-105.2443107, 1596.769,1618.097, 41.020,30.282
1721678185.732303,-10,54,1053,1890,-1952,-58984
1721678185.741553,-6,76,1047,1462,-919,-57112
1721678185.750803,-7,75,1041,1042,96,-58109
1721678185.760053,-14,74,1036,998,1190,-60795
1721678185.769303,-18,71,1031,1190,2345,-62362
1721678185.778553,-14,59,1030,1532,3631,-62169
1721678185.787803,-9,42,1032,1812,5145,-60892
1721678185.797059,-6,17,1034,1969,6475,-58757,-5718,32629,75787,84528,32984, 158206.700, 40.0103395,-105.2443169, 1600.804,1622.132, 39.366,29.476
1721678185.806309,5,0,1032,1768,7621,-56132
1721678185.815559,25,-7,1024,1112,8715,-53822
1721678185.824809,45,-5,1010,-35,9677,-52290
1721678185.834059,58,-10,1000,-1373,10263,-51704
1721678185.843309,82,-15,995,-2598,10447,-51862
1721678185.852559,99,-13,988,-3885,10526,-51914
1721678185.861809,111,-2,983,-5302,10167,-51687
1721678185.871064,130,-11,977,-6510,9537,-52317
1721678185.880314,119,3,970,-7603,8750,-53743
1721678185.889564,136,10,965,-8671,7542,-51302
1721678185.898814,125,-10,975,-9231,6370,-45352
1721678185.908064,108,-26,993,-9747,4838,-41362
1721678185.917314,128,6,1000,-11217,3666,-40093
1721678185.926564,142,43,989,-13186,2992,-39052
1721678185.935814,143,64,985,-14297,2021,-37853
1721678185.945069,141,48,988,-14612,822,-37757,-3991,34204,75463,84530,32982, 158206.800, 40.0103493,-105.2443202, 1603.047,1624.375, 37.985,28.872
1721678185.954319,131,48,994,-14533,-245,-38010
1721678185.963569,110,62,1003,-14673,-1322,-36890
1721678185.972819,90,76,1009,-14743,-2004,-34554
1721678185.982069,76,79,1015,-14577,-2328,-32822
1721678185.991319,61,78,1018,-14323,-2127,-33163
1721678186.000569,59,88,1015,-14035,-1654,-35219
1721678186.009819,59,100,1010,-13798,-1007,-36374
1721678186.019074,59,98,1009,-13256,-368,-34913,-2783,35821,75109,84528,32982, 158206.900, 40.0103636,-105.2443275, 1604.876,1626.204, 36.740,28.276
1721678186.028324,71,103,1016,-12337,78,-32340
1721678186.037574,71,103,1023,-11383,341,-30144
1721678186.046824,67,91,1029,-10561,323,-29269
1721678186.056074,62,82,1034,-9922,227,-28307
1721678186.065324,55,70,1039,-8872,-88,-26504
1721678186.074574,51,70,1045,-8347,-385,-25034
1721678186.083824,37,84,1044,-8137,-525,-24282
1721678186.093171,31,96,1042,-7936,-613,-24413,-1855,36627,74774,84531,32980, 158207.000, 40.0103569,-105.2443282, 1605.414,1626.741, 35.289,27.608
1721678186.102421,21,93,1049,-7323,-420,-24597
1721678186.111671,15,70,1064,-6405,-53,-25270
1721678186.120921,28,66,1071,-5775,691,-26250
1721678186.130171,45,79,1068,-5460,1417,-26154
1721678186.139421,59,80,1060,-5232,2108,-25883
1721678186.148671,79,66,1052,-4698,2520,-26460
1721678186.157921,93,37,1050,-4165,2747,-27764
1721678186.167176,105,38,1043,-3806,2563,-28175,-878,37225,74786
1721678186.176426,121,62,1032,-4007,2257,-26933
1721678186.185676,127,88,1020,-4322,1750,-25192
1721678186.194926,125,108,1012,-4051,971,-23039
1721678186.204176,111,111,1013,-3045,61,-20134
1721678186.213426,101,111,1024,-1513,-770,-17675
1721678186.222676,99,92,1030,27,-1260,-16704
1721678186.231926,91,72,1033,1462,-1768,-17220
1721678186.241181,69,53,1023,2494,-2258,-17807,,,,84530,32982, 158207.100, 40.0103453,-105.2443279, 1605.339,1626.667, 34.065,26.989
1721678186.250431,88,52,1019,3080,-2625,-18332
1721678186.259681,94,29,1017,3395,-2853,-17780
1721678186.268931,91,15,1020,3850,-3430,-12854
1721678186.278181,73,31,1019,3632,-3780,-9249
1721678186.287431,52,41,1016,3010,-4139,-10378
1721678186.296681,51,42,1013,2853,-4192,-12023
1721678186.305931,45,33,1018,3142,-3973,-12067
1721678186.315186,51,29,1020,3220,-3745,-12347,-604,37042,74908,84527,32980, 158207.200, 40.0103383,-105.2443228, 1604.668,1625.996, 32.993,26.428
1721678186.324436,48,24,1017,3054,-3553,-12487
1721678186.333686,55,21,1021,2949,-3632,-11769
1721678186.342936,53,20,1025,2652,-3702,-10404
1721678186.352186,49,18,1032,2284,-3894,-8759
1721678186.361436,31,24,1039,1838,-4183,-8094
1721678186.370686,14,28,1051,1269,-4200,-8400
1721678186.379936,7,24,1055,657,-3772,-9284
1721678186.389191,12,38,1053,97,-2932,-9914,-518,37115,74816,,, 158207.300, 40.0102927,-105.2442886, 1599.291,1620.619, 30.838,24.368
1721678186.398441,15,71,1035,-612,-2074,-10570
1721678186.407691,20,93,1017,-927,-1304,-11078
1721678186.416941,28,90,1011,-542,-604,-11262
1721678186.426191,43,88,1010,412,-158,-11524
1721678186.435441,51,76,1010,1435,131,-11235
1721678186.444691,54,52,1012,2354,131,-10780
1721678186.453941,71,49,1011,3019,87,-10693
1721678186.463196,85,53,1007,3255,70,-11095,-201,37036,74902,84518,32982
1721678186.472446,96,35,1011,3387,-219,-11253
1721678186.481696,107,22,1020,3728,-639,-10107
1721678186.490946,119,20,1022,3833,-1400,-8287
1721678186.500196,120,16,1021,3710,-2275,-6668
1721678186.509446,122,17,1021,3413,-3299,-5758
1721678186.518696,114,26,1016,2958,-4332,-5417
1721678186.527946,104,29,1016,2713,-5382,-5040
1721678186.537201,100,24,1017,2792,-6239,-3859,-579,36822,74938,84523,32991, 158207.400, 40.0102662,-105.2442672, 1596.077,1617.405, 29.053,22.654
1721678186.546451,84,8,1023,2975,-6860,-2520
1721678186.555701,63,-12,1036,3089,-7455,-1470
1721678186.564951,54,-4,1045,2870,-7770,-149
1721678186.574201,64,12,1044,2127,-7648,901
1721678186.583451,66,22,1039,1400,-7359,875
1721678186.592701,63,32,1037,1042,-7342,-9
1721678186.601951,58,36,1031,972,-7578,-53
1721678186.611206,48,34,1027,1094,-7797,280,-1245,36682,74963,84531,32988, 158207.500, 40.0102509,-105.2442560, 1594.545,1615.873, 27.628,21.358
1721678186.620456,41,39,1024,1339,-7972,280
1721678186.629706,36,47,1018,1505,-7980,-140
1721678186.638956,34,53,1016,1724,-7858,-1225
1721678186.648206,29,47,1011,2127,-7648,-1925
1721678186.657456,25,37,1014,2757,-7560,-1715
1721678186.666706,19,15,1020,3369,-7377,-1462
1721678186.675956,12,3,1027,3640,-7210,-1715
1721678186.685212,13,1,1037,3369,-6860,-1890,,,,,, 158207.600, 40.0102433,-105.2442466, 1593.581,1614.909, 26.247,20.126
1721678186.694462,15,-6,1037,2914,-6405,-1969
1721678186.703712,20,0,1035,2424,-6012,-1120
1721678186.712962,29,10,1033,1637,-5504,437
1721678186.722212,37,9,1024,1138,-5268,883
1721678186.731462,40,11,1019,788,-5320,-149
1721678186.740712,42,12,1018,412,-5522,-1523
1721678186.749962,40,11,1017,53,-5705,-2818
1721678186.759308,42,9,1023,-175,-5915,-3597,-1733,36529,74865,84520,32986
1721678186.768558,43,2,1025,-455,-6082,-3553
1721678186.777808,46,-11,1025,-822,-6108,-3124
1721678186.787058,55,-16,1028,-1347,-6187,-2459
1721678186.796308,64,-11,1025,-2073,-6423,-928
1721678186.805558,63,-11,1022,-2913,-6773,455
1721678186.814808,65,-6,1024,-3727,-7263,481
1721678186.824058,72,2,1017,-4593,-7727,-989
1721678186.833313,73,18,1007,-5346,-8208,-2074,-2325,36816,74627,84524,32995, 158207.700, 40.0102156,-105.2442303, 1591.611,1612.939, 24.955,19.046
1721678186.842563,67,41,1002,-6002,-8759,-1444
1721678186.851813,53,38,1002,-6151,-9345,-972
1721678186.861063,42,40,1000,-5950,-9774,-2284
1721678186.870313,34,40,1001,-5880,-9949,-4279
1721678186.879563,20,46,1000,-5941,-9967,-5303
1721678186.888813,5,50,1003,-5871,-9914,-5049
1721678186.898063,-6,53,1009,-5600,-9687,-3833
1721678186.907319,-6,61,1015,-5407,-9223,-2433,-2990,37121,74194,84522,32995, 158207.800, 40.0101952,-105.2442221, 1591.000,1612.328, 24.154,18.626
1721678186.916569,-9,78,1016,-5250,-8549,-1514
1721678186.925819,-10,92,1014,-4978,-7972,-385
1721678186.935069,-8,93,1017,-4401,-7525,175
1721678186.944319,-10,99,1012,-3701,-7097,-473
1721678186.953569,-11,113,1009,-2975,-6782,-1155
1721678186.962819,-19,111,1005,-1977,-6537,-858
1721678186.972069,-21,96,1011,-761,-6239,-324
1721678186.981324,-27,72,1017,385,-5802,-1234,-3442,37091,74108,,, 158207.900, 40.0101907,-105.2442201, 1590.930,1612.258, 22.368,17.418
1721678186.990574,-30,59,1022,1173,-5303,-3072
1721678186.999824,-31,44,1027,1505,-4760,-3483
1721678187.009074,-29,42,1032,1593,-4209,-2240
1721678187.018324,-19,46,1036,1435,-3509,-700
1721678187.027574,-11,45,1033,1304,-2932,-44
1721678187.036824,-3,47,1032,1050,-2617,-980
1721678187.046074,-2,51,1031,727,-2538,-2468
1721678187.055329,-3,59,1029,604,-2503,-3492,-3765,36968,74066,84527,32997
1721678187.064579,-2,67,1025,613,-2599,-3737
1721678187.073829,5,67,1022,945,-2634,-2844
1721678187.083079,16,60,1019,1470,-2468,-1689
1721678187.092329,24,36,1020,2039,-2590,-1164
1721678187.101579,28,24,1021,2398,-2975,-1182
1721678187.110829,28,37,1016,2127,-3500,-280
1721678187.120079,15,51,1013,1715,-4139,1365
1721678187.129334,13,56,1012,1540,-4883,1785,,,,84525,33010, 158208.000, 40.0101949,-105.2442219, 1591.255,1612.583, 20.998,16.604
1721678187.138584,15,59,1012,1707,-5277,1093
1721678187.147834,7,40,1016,1899,-5679,157
1721678187.157084,6,34,1023,2267,-6152,-700
1721678187.166334,0,49,1019,2232,-6624,-569
1721678187.175584,-7,64,1016,1987,-6992,262
1721678187.184834,-11,64,1010,2223,-7245,297
1721678187.194084,-24,56,1009,2914,-7464,-79
1721678187.203339,-44,42,1015,3570,-7490,26,-4492,36584,73950,84524,33004, 158208.100, 40.0101957,-105.2442218, 1591.433,1612.761, 19.791,15.896
1721678187.212589,-58,19,1024,4192,-7333,490
1721678187.221839,-64,14,1026,4454,-6817,892
1721678187.231089,-72,9,1027,4288,-6108,1671
1721678187.240339,-73,13,1027,3859,-5285,2511
1721678187.249589,-78,9,1026,3413,-4454,3123
1721678187.258839,-84,4,1027,3273,-3684,3517
1721678187.268089,-82,12,1025,2879,-2739,3132
1721678187.277344,-84,25,1022,2302,-1654,1706,-4888,36328,73999
1721678187.286594,-74,23,1020,2100,-613,-245
1721678187.295844,-81,12,1023,2170,420,-2468
1721678187.305094,-82,4,1024,2144,1365,-4192
1721678187.314344,-79,-4,1026,2013,2423,-4743
1721678187.323594,-73,-19,1027,1768,3447,-4664
1721678187.332844,-60,-24,1027,1295,4471,-4647
1721678187.342094,-50,-20,1022,455,5486,-4314
1721678187.351349,-38,-19,1016,-402,6203,-3763,-4473,36383,74127,84522,33004, 158208.200, 40.0101949,-105.2442186, 1590.959,1612.287, 18.303,14.785
1721678187.360599,-32,-12,1013,-1190,6746,-3763
1721678187.369849,-16,3,1009,-2038,7122,-4209
1721678187.379099,-5,17,1008,-2686,7402,-4384
1721678187.388349,-2,11,1010,-2957,7315,-5942
1721678187.397599,-2,12,1013,-3001,7035,-8112
1721678187.406849,2,18,1011,-3150,6720,-7954
1721678187.416099,8,9,1012,-3080,6300,-5889
1721678187.425354,13,-2,1018,-2975,5801,-4550,-4125,36706,73968,84533,33008, 158208.300, 40.0101892,-105.2442140, 1590.313,1611.641, 17.090,13.932
1721678187.434604,9,-18,1024,-3255,5232,-4323
1721678187.443854,8,-15,1026,-3928,4672,-4122
1721678187.453104,9,3,1021,-4733,3990,-3360
1721678187.462354,7,30,1016,-5696,3430,-2345
1721678187.471604,1,42,1014,-6265,2887,-2232
1721678187.480854,-9,39,1018,-6387,2388,-3850
1721678187.490104,-19,45,1022,-6186,1968,-5837
1721678187.499360,-25,54,1022,-6081,1793,-6335,,,,84525,33010, 158208.400, 40.0101868,-105.2442115, 1590.073,1611.401, 16.187,13.450
1721678187.508610,-32,56,1022,-5915,1776,-6020
1721678187.517860,-43,46,1024,-5547,1890,-6265
1721678187.527110,-51,38,1027,-5180,1968,-6598
1721678187.536360,-60,31,1032,-5110,2310,-5985
1721678187.545610,-65,30,1035,-5276,2765,-4734
1721678187.554860,-61,50,1033,-5591,3412,-3290
1721678187.564110,-55,68,1028,-6002,4226,-1882
1721678187.573365,-51,77,1027,-6028,5005,-2127,-3924,37139,73760
1721678187.582615,-50,82,1029,-5661,5670,-4130
1721678187.591865,-49,89,1028,-5145,6203,-6405
1721678187.601115,-45,96,1025,-4567,6728,-7587
1721678187.610365,-40,93,1023,-3780,7288,-7858
1721678187.619615,-34,76,1024,-2607,7743,-7735
1721678187.628865,-30,64,1024,-1592,8163,-7604
1721678187.638115,-23,56,1023,-1076,8548,-6659
1721678187.647370,-11,49,1024,-708,8881,-4883,-3173,37402,73870,84533,33017, 158208.500, 40.0101794,-105.2442059, 1589.276,1610.604, 15.314,12.936
1721678187.656620,-7,52,1026,-568,9073,-3343
1721678187.665870,7,61,1026,-551,9213,-2415
1721678187.675120,19,72,1020,-551,9275,-2442
1721678187.684370,26,72,1017,-271,8995,-3124
1721678187.693620,24,66,1019,245,8496,-4235
1721678187.702870,30,55,1024,552,7918,-5443
1721678187.712120,36,45,1026,963,7420,-5189
1721678187.721375,41,45,1026,1147,6816,-3527,-2673,37493,73956,84528,33012, 158208.600, 40.0101785,-105.2442047, 1589.086,1610.414, 14.623,12.594
1721678187.730625,41,49,1021,1077,6098,-2372
1721678187.739875,40,58,1012,832,5521,-2529
1721678187.749125,39,64,1004,805,4882,-2923
1721678187.758375,31,50,1007,1112,4261,-2940
1721678187.767625,22,31,1016,1523,3736,-2555
1721678187.776875,23,37,1020,1558,3272,-1330
1721678187.786125,20,42,1023,1234,2992,472
1721678187.795380,18,38,1023,972,2703,883,-2581,37463,74072,84525,33019, 158208.700, 40.0101789,-105.2442038, 1588.852,1610.180, 14.003,12.287
1721678187.804630,15,30,1025,604,2415,-219
1721678187.813880,10,31,1025,254,2178,-1383
1721678187.823130,1,35,1025,-315,1872,-2013
1721678187.832380,-3,48,1022,-813,1723,-2380
1721678187.841630,-5,53,1020,-1181,1750,-2512
1721678187.850880,-9,44,1024,-1190,1933,-2433
1721678187.860130,-6,34,1026,-1093,2240,-2512
1721678187.869507,-1,39,1027,-1295,2616,-2442,-2386,37646,74072
1721678187.878757,5,48,1026,-1618,2948,-1479
1721678187.888007,5,60,1025,-1881,3185,-779
1721678187.897257,13,58,1022,-2021,3351,-1444
1721678187.906507,22,59,1021,-1986,3508,-1628
1721678187.915757,26,53,1020,-1758,3500,-1015
1721678187.925007,32,56,1017,-1592,3290,-910
1721678187.934257,35,52,1014,-1575,3150,-963
1721678187.943390,33,38,1017,-1452,2835,-1103,,,,84524,33023, 158208.800, 40.0101772,-105.2442012, 1588.530,1609.858, 13.390,11.922
1721678187.952640,29,35,1021,-1400,2450,-1374
1721678187.961890,30,48,1023,-1715,2196,-1409
1721678187.971140,41,62,1022,-2152,2038,-1024
1721678187.980390,50,64,1020,-2205,1802,-657
1721678187.989640,53,68,1017,-2012,1443,-788
1721678187.998890,54,69,1013,-1863,971,-1540
1721678188.008140,49,71,1012,-1636,341,-2415
1721678188.017395,40,64,1011,-1321,-350,-3177,-2258,37786,73999,84522,33023, 158208.900, 40.0101818,-105.2442016, 1588.926,1610.254, 12.811,11.625
1721678188.026645,32,47,1017,-953,-849,-3360
1721678188.035895,25,32,1025,-743,-1050,-2809
1721678188.045145,21,34,1027,-848,-1208,-1812
1721678188.054395,18,46,1026,-1286,-1217,-272
1721678188.063645,13,58,1027,-1645,-1050,1645
1721678188.072895,19,66,1027,-1811,-788,2642
1721678188.082145,13,67,1027,-1802,-648,1443
1721678188.091401,6,65,1029,-1671,-648,-840,-2362,37646,73870,,, 158209.000, 40.0101849,-105.2442023, 1588.826,1610.154, 12.304,11.350
1721678188.100651,1,60,1031,-1680,-657,-2599
1721678188.109901,1,72,1030,-1592,-569,-3028
1721678188.119151,4,91,1023,-1618,-420,-2407
1721678188.128401,8,93,1017,-1216,-403,-2109
1721678188.137651,-3,80,1017,-586,-368,-2879
1721678188.146901,-15,55,1021,245,-429,-3798
1721678188.156151,-18,34,1026,910,-210,-3457
1721678188.165467,-17,22,1032,1024,245,-2275,-2343,37707,73950,84533,33028
1721678188.174717,-13,26,1036,595,831,-902
1721678188.183967,-13,26,1036,62,1277,17
1721678188.193217,-10,23,1034,-603,1706,157
1721678188.202467,-3,29,1031,-1268,2021,-245
1721678188.211717,0,33,1027,-1986,2336,-1173
1721678188.220967,-5,30,1026,-2572,2301,-1829
1721678188.230217,-2,48,1024,-3106,2275,-1190
1721678188.239472,7,76,1016,-3710,2511,-35,-2172,37915,73791,84531,33039, 158209.100, 40.0101901,-105.2442038, 1588.972,1610.301, 11.828,11.085
1721678188.248722,10,99,1014,-3832,2677,1128
1721678188.257972,7,84,1012,-3185,2773,1645
1721678188.267222,6,65,1015,-2406,2940,630
1721678188.276472,2,36,1018,-1741,3088,-814
1721678188.285722,-2,15,1023,-1627,3246,-1855
1721678188.294972,6,13,1025,-2170,3561,-2328
1721678188.304222,21,31,1025,-3202,4016,-1654
1721678188.313477,24,59,1023,-4287,4121,-805,-1861,38232,73657,84532,33045, 158209.200, 40.0101956,-105.2442057, 1589.245,1610.573, 11.447,10.884
1721678188.322727,21,77,1022,-5048,3998,-762
1721678188.331977,25,93,1023,-5293,4016,-1190
1721678188.341227,28,107,1021,-5215,4103,-1418
1721678188.350477,32,114,1019,-4698,4042,-1707
1721678188.359727,31,109,1015,-4033,3937,-2240
1721678188.368977,28,104,1011,-3281,3806,-2958
1721678188.378227,29,99,1008,-2642,3605,-3378
1721678188.387482,29,96,1007,-2143,3412,-3360,,,,,, 158209.300, 40.0101988,-105.2442069, 1589.317,1610.645, 11.083,10.676
1721678188.396732,25,83,1014,-1855,3246,-3185
1721678188.405982,20,86,1015,-1601,3193,-3107
1721678188.415232,20,98,1016,-1566,3263,-2923
1721678188.424482,21,104,1014,-1592,3465,-2582
1721678188.433732,21,97,1014,-1417,3736,-2275
1721678188.442982,23,98,1018,-953,3867,-2092
1721678188.452232,22,94,1018,-717,4060,-2319
1721678188.461487,22,97,1021,-507,4191,-2713,-1525,38366,73699,84530,33041
1721678188.470737,27,101,1019,-385,4453,-2914
1721678188.479987,32,99,1015,-96,4672,-3203
1721678188.489237,40,88,1011,307,4847,-3763
1721678188.498487,44,84,1009,578,4952,-4612
1721678188.507737,48,73,1011,779,4917,-4935
1721678188.516987,49,59,1016,945,4768,-4498
1721678188.526237,53,60,1021,744,4707,-4017
1721678188.535492,56,67,1024,202,4655,-3772,-1098,38488,73809,84527,33039, 158209.400, 40.0102016,-105.2442076, 1589.067,1610.395, 10.775,10.455
1721678188.544742,61,77,1023,-218,4550,-2695
1721678188.553992,62,95,1022,-472,4375,-622
1721678188.563242,57,97,1023,-498,4156,918
1721678188.572492,58,92,1027,-157,3911,1190
1721678188.581742,54,98,1028,263,3718,901
1721678188.590992,56,91,1028,377,3640,157
1721678188.600242,57,91,1028,613,3631,-158
1721678188.609497,54,89,1028,875,3500,-105,-915,38427,73852,84526,33045, 158209.500, 40.0102033,-105.2442085, 1588.835,1610.163, 10.469,10.218
1721678188.618747,92,125,1023,945,3412,-753
1721678188.627997,155,227,1011,998,3473,-1400
1721678188.637247,120,153,1022,1917,2485,-989
1721678188.646497,80,131,1022,3964,1163,787
1721678188.655747,-54,117,1029,4830,131,-2284
1721678188.664997,8,-3,1029,5627,192,-4787
1721678188.674247,12,9,1029,6239,1505,-4647
1721678188.683503,72,31,1031,5583,2082,988,-622,38311,74169,,, 158209.600, 40.0102037,-105.2442084, 1588.545,1609.873, 10.198,10.012
1721678188.692753,101,42,1034,4585,2528,-902
1721678188.702003,115,91,1033,3807,2275,-7657
1721678188.711253,120,122,1033,3465,1417,-10185
1721678188.720503,117,115,1033,3964,332,-9302
1721678188.729753,99,69,1029,4830,-814,-8199
1721678188.739003,82,28,1027,5565,-1978,-6563
1721678188.748253,70,7,1027,5600,-2783,-5688
1721678188.757538,64,-1,1030,4962,-3255,-6799,,,,84531,33058
1721678188.766788,60,31,1032,4017,-3789,-8112
1721678188.776038,54,51,1027,2914,-4192,-8637
1721678188.785288,50,77,1018,2127,-4445,-7718
1721678188.794538,43,101,1013,1715,-4594,-4305
1721678188.803788,37,119,1013,1899,-4647,-1400
1721678188.813038,44,126,1011,2450,-4638,-420
1721678188.822288,48,102,1010,3168,-4419,-158
1721678188.831604,44,61,1015,3929,-4288,813,-750,38140,74230,84529,33050, 158209.700, 40.0102034,-105.2442078, 1588.389,1609.717, 9.956,9.831
1721678188.840854,44,26,1017,4253,-4262,1015
1721678188.850104,32,6,1015,3754,-4113,-744
1721678188.859354,24,25,1013,2573,-3955,-2372
1721678188.868604,27,50,1012,1295,-3623,-2704
1721678188.877854,28,78,1010,420,-3142,-2932
1721678188.887104,27,96,1012,9,-2792,-2162
1721678188.896354,31,115,1012,158,-2337,-902
1721678188.905610,43,123,1011,718,-1882,236,-927,37963,74255,84527,33061, 158209.800, 40.0102025,-105.2442078, 1588.060,1609.388, 9.725,9.661
1721678188.914860,39,109,1012,1409,-1619,1356
1721678188.924110,35,93,1014,2223,-1488,2353
1721678188.933360,20,62,1015,2739,-1322,2905
1721678188.942610,6,46,1016,3002,-1094,2135
1721678188.951860,-5,34,1013,2582,-639,350
1721678188.961110,-6,29,1009,1995,35,-1453
1721678188.970360,5,48,1002,1575,848,-1672
1721678188.979615,27,88,996,1173,1575,-858,-933,37725,74322
1721678188.988865,51,121,993,1077,2152,446
1721678188.998115,56,116,998,1812,2283,1382
1721678189.007365,60,97,1007,2993,2196,1793
1721678189.016615,59,71,1013,3938,2012,2397
1721678189.025865,53,55,1016,4340,1907,3106
1721678189.035115,36,44,1017,4349,1785,2913
1721678189.044365,28,48,1014,4113,1531,2441
1721678189.053620,19,49,1010,3885,1723,2896,-738,37481,74536,84528,33054, 158209.900, 40.0102017,-105.2442078, 1587.820,1609.148, 9.508,9.505
1721678189.062870,18,23,1013,3850,1925,2738
1721678189.072120,18,-5,1021,3824,2362,1076
1721678189.081370,9,-8,1023,3255,2791,-3002
1721678189.090620,18,15,1025,2109,3325,-6379
1721678189.099870,36,32,1025,1243,4007,-5880
1721678189.109120,57,17,1024,683,4541,-5084
1721678189.118370,74,80,1022,219,4707,-1750
1721678189.127625,72,117,1022,-78,4681,7752,-866,37390,74578,84523,33058, 158210.000, 40.0102005,-105.2442077, 1587.474,1608.802, 9.275,9.345
1721678189.136875,75,117,1023,385,4331,12433
1721678189.146125,79,74,1027,1164,4025,10316
1721678189.155375,77,31,1031,1855,3648,5757
1721678189.164625,83,19,1035,1864,3281,4698
1721678189.173875,89,43,1033,1444,2922,8968
1721678189.183125,82,51,1030,709,2537,11690
1721678189.192375,82,55,1032,219,2012,10045
1721678189.201630,89,65,1030,62,1548,9371,,,,84526,33065, 158210.100, 40.0101999,-105.2442081, 1587.147,1608.475, 9.076,9.217
1721678189.210880,87,64,1029,-26,1076,9712
1721678189.220130,84,52,1027,-35,446,8251
1721678189.229380,67,38,1028,18,-140,6028
1721678189.238630,64,50,1022,-43,-648,6230
1721678189.247880,70,33,1015,-490,-919,7796
1721678189.257130,56,-8,1012,-980,-1234,5512
1721678189.266380,56,-25,1011,-1452,-1707,2607
1721678189.275635,65,-24,1012,-2196,-1873,4602,-1232,37322,74584
1721678189.284885,69,-19,1016,-3220,-2092,6177
1721678189.294135,72,3,1021,-4340,-2433,6553
1721678189.303385,78,7,1022,-5153,-3133,6448
1721678189.312635,78,-6,1026,-5818,-3509,5145
1721678189.321885,77,-12,1031,-6387,-4017,4803
1721678189.331135,83,15,1031,-7350,-4437,5915
1721678189.340385,78,50,1027,-8592,-4988,7656
1721678189.349640,68,72,1027,-9353,-5705,9038,-1940,37615,74017,84532,33063, 158210.200, 40.0101996,-105.2442084, 1586.889,1608.217, 8.885,9.105
1721678189.358890,62,87,1031,-9520,-6239,9423
1721678189.368140,57,94,1029,-9205,-6572,9056
1721678189.377390,50,96,1026,-8583,-6869,8951
1721678189.386640,40,84,1024,-8058,-7175,9555
1721678189.395890,28,77,1022,-7472,-7482,9808
1721678189.405140,19,78,1020,-7192,-7744,10010
1721678189.414390,13,64,1022,-7175,-7797,10106
1721678189.423645,14,71,1022,-7306,-7639,9852,-3015,37963,73596,84530,33065, 158210.300, 40.0101980,-105.2442084, 1586.612,1607.940, 8.749,9.007
1721678189.432895,18,83,1023,-7630,-7438,10228
1721678189.442145,18,87,1019,-7857,-7219,11060
1721678189.451395,20,104,1016,-7927,-7097,11550
1721678189.460645,18,127,1009,-7988,-6843,12425
1721678189.469895,9,134,997,-7647,-6782,12748
1721678189.479145,-4,123,991,-6763,-6685,12241
1721678189.488395,-17,105,989,-5722,-6344,10745
1721678189.497651,-26,94,988,-4996,-5810,9712,-3936,38116,73278,84523,33080, 158210.400, 40.0101963,-105.2442081, 1586.373,1607.701, 8.629,8.925
1721678189.506901,-39,91,991,-4488,-5084,10360
1721678189.516151,-40,82,1000,-4261,-4218,11628
1721678189.525401,-32,74,1010,-4077,-3177,12766
1721678189.534651,-19,86,1012,-4025,-2074,13965
1721678189.543901,-11,95,1014,-4296,-1278,14271
1721678189.553151,-17,90,1019,-4366,-718,13448
1721678189.562401,-19,85,1021,-4296,-333,12390
1721678189.571656,-16,98,1019,-4296,157,11007
1721678189.580906,-20,109,1012,-4523,918,9992
1721678189.590156,-21,116,1009,-4401,1513,9756
1721678189.599406,-19,122,1012,-4033,2275,9738
1721678189.608656,-11,125,1015,-3491,2975,9388
1721678189.617906,-1,129,1017,-3036,3753,9222
1721678189.627156,10,139,1015,-2450,4331,9117
1721678189.636406,14,137,1016,-1837,4690,8102
1721678189.645661,16,132,1019,-1067,4847,6930,-4309,38140,73065,84525,33080, 158210.500, 40.0101954,-105.2442087, 1586.263,1607.591, 8.520,8.848
1721678189.654911,14,134,1020,-358,5083,6685
1721678189.664161,15,134,1021,289,5425,6903
1721678189.673411,21,138,1021,928,5713,7796
1721678189.682661,22,153,1016,1497,6098,8907
1721678189.691911,25,171,1012,2092,6326,9668
1721678189.701161,24,174,1010,3089,6387,10307
1721678189.710411,25,173,1009,4384,6370,10272
1721678189.719666,26,165,1009,5705,6413,9773,-4437,37725,73419,84529,33080, 158210.600, 40.0101919,-105.2442090, 1586.093,1607.421, 8.400,8.722
1721678189.728916,25,150,1009,7105,6326,9021
1721678189.738166,16,128,1008,8532,6160,8382
1721678189.747416,5,107,1009,9625,6037,7770
1721678189.756666,5,80,1015,10413,6203,8470
1721678189.765916,2,61,1020,11069,6448,10290
1721678189.775166,5,53,1024,11165,6772,10911
1721678189.784416,8,38,1026,10719,7236,10158
1721678189.793671,18,41,1021,10115,7691,8706,-4498,36810,73895,84532,33091, 158210.700, 40.0101894,-105.2442084, 1585.912,1607.240, 8.292,8.615
1721678189.802921,21,51,1014,9337,8006,7367
1721678189.812171,23,43,1012,8733,8251,6571
1721678189.821421,28,34,1013,8409,8592,6063
1721678189.830671,39,43,1010,7963,9003,5740
1721678189.839921,44,45,1005,7377,9310,6142
1721678189.849171,49,54,1002,6904,9607,7245
1721678189.858421,55,50,1003,6659,9887,8391
1721678189.867676,60,35,1008,6580,10062,9012,-4296,36138,74298
1721678189.876926,61,27,1014,6327,10115,9056
1721678189.886176,67,38,1017,5662,10115,9222
1721678189.895426,66,49,1018,4892,10018,9826
1721678189.904676,65,55,1020,4305,9773,9528
1721678189.913926,64,56,1024,3842,9590,7673
1721678189.923176,62,58,1025,3465,9485,5862
1721678189.932426,59,58,1025,3273,9318,5521
1721678189.941681,66,68,1023,3080,9275,5731,-3869,35870,74853,84534,33091, 158210.800, 40.0101858,-105.2442080, 1585.638,1606.966, 8.195,8.518
1721678189.950931,66,90,1016,2774,9310,5162
1721678189.960181,57,91,1010,2757,9196,3727
1721678189.969431,53,79,1010,3264,9161,2292
1721678189.978681,59,85,1009,3763,9520,1627
1721678189.987931,58,83,1011,4113,9861,1557
1721678189.997181,71,78,1012,4690,10106,1408
1721678190.006431,75,67,1017,5102,10228,1163
1721678190.015686,71,45,1018,5434,10097,1198,,,,84530,33094, 158210.900, 40.0101840,-105.2442077, 1585.546,1606.874, 8.102,8.421
1721678190.024936,75,43,1016,5670,9852,2170
1721678190.034186,73,56,1008,5382,9896,3080
1721678190.043436,74,65,1003,4927,9826,3141
1721678190.052686,50,57,1004,4900,9835,3272
1721678190.061936,37,52,1007,5207,10001,3701
1721678190.071186,43,48,1005,5338,10587,4095
1721678190.080436,57,44,1001,5294,11576,4488
1721678190.089692,69,31,1002,5110,12390,4628,-3314,35333,75268,,, 158211.000, 40.0101841,-105.2442084, 1585.612,1606.940, 8.009,8.352
1721678190.098942,77,29,1008,4822,12722,4313
1721678190.108192,84,48,1008,4087,12705,3307
1721678190.117442,91,59,1009,3247,12521,2178
1721678190.126692,96,48,1013,2827,12232,918
1721678190.135942,95,36,1026,2704,11742,-639
1721678190.145192,102,40,1043,2372,11226,-2170
1721678190.154442,120,59,1050,1619,10911,-3710
1721678190.163727,145,70,1047,1033,10561,-5942,-2398,35247,75738,84528,33096
1721678190.172977,162,77,1048,814,9948,-9398
1721678190.182227,161,78,1045,709,8863,-13607
1721678190.191477,163,71,1044,849,7586,-17404
1721678190.200727,163,83,1044,1103,6300,-20257
1721678190.209977,158,96,1034,1208,5171,-21482
1721678190.219227,164,106,1027,1593,4313,-21622
1721678190.228477,165,107,1025,2520,3535,-21228
1721678190.237732,139,86,1028,3693,2581,-20012,-1495,35156,75964,84529,33098, 158211.100, 40.0101841,-105.2442086, 1585.658,1606.986, 7.926,8.296
1721678190.246982,104,62,1034,4935,1662,-16975
1721678190.256232,93,69,1034,5837,1356,-10229
1721678190.265482,93,72,1025,6274,1697,-2048
1721678190.274732,110,57,1022,6615,2310,2152
1721678190.283982,125,63,1013,6668,2870,1793
1721678190.293232,132,69,1001,6528,2948,945
1721678190.302482,128,65,1000,6537,2485,1487
1721678190.311737,111,47,1011,6685,1863,1680,-1379,34735,76342,84530,33102, 158211.200, 40.0101823,-105.2442079, 1585.431,1606.759, 7.838,8.231
1721678190.320987,92,40,1018,6747,1233,962
1721678190.330237,81,38,1020,6537,1137,332
1721678190.339487,127,16,1020,6370,1610,-27
1721678190.348737,106,9,1018,6213,2388,945
1721678190.357987,128,25,1020,5592,2371,516
1721678190.367237,159,26,1015,5102,2966,1067
1721678190.376487,186,24,1007,4962,3246,2047
1721678190.385743,202,18,1003,4795,2756,743,-1507,34338,76562,,, 158211.300, 40.0101814,-105.2442076, 1585.397,1606.725, 7.751,8.166
1721678190.394993,204,15,1002,4647,1645,-385
1721678190.404243,202,11,1002,4489,262,-499
1721678190.413493,200,-8,1003,4314,-1129,-849
1721678190.422743,181,-32,1009,4104,-2380,-149
1721678190.431993,186,-37,1014,3623,-3465,1067
1721678190.441243,189,-25,1017,2512,-4078,2616
1721678190.450493,210,-9,1012,1147,-4655,4025
1721678190.459748,231,2,1009,35,-5338,4453,,,,84533,33107
1721678190.468998,238,5,1005,-682,-6397,4086
1721678190.478248,233,3,1005,-1268,-8015,2791
1721678190.487498,220,3,1004,-1960,-9835,1960
1721678190.496748,196,2,1008,-2546,-11664,1785
1721678190.505998,173,8,1015,-3202,-13125,1540
1721678190.515248,158,13,1025,-4033,-14105,1268
1721678190.524498,163,21,1023,-4628,-14613,1776
1721678190.533753,152,27,1022,-5031,-14910,3412,-2508,34600,76385,84535,33115, 158211.400, 40.0101802,-105.2442072, 1585.301,1606.629, 7.668,8.108
1721678190.543003,135,37,1022,-5390,-15435,4173
1721678190.552253,115,56,1017,-5731,-15768,3963
1721678190.561503,100,58,1016,-5626,-15742,3762
1721678190.570753,87,49,1018,-5197,-15479,2406
1721678190.580003,72,37,1021,-4716,-14928,1925
1721678190.589253,56,25,1027,-4305,-14333,2047
1721678190.598503,49,29,1030,-4270,-13712,1198
1721678190.607758,41,41,1029,-4532,-12819,848,-3540,34686,75836,84525,33120, 158211.500, 40.0101795,-105.2442067, 1585.200,1606.528, 7.596,8.056
1721678190.617008,42,33,1031,-4707,-11883,1198
1721678190.626258,33,28,1036,-4620,-10833,1496
1721678190.635508,27,32,1038,-4681,-9818,1347
1721678190.644758,25,42,1034,-4891,-8575,1662
1721678190.654008,25,44,1033,-4961,-7245,2861
1721678190.663258,50,52,1031,-4795,-5828,4042
1721678190.672508,71,57,1026,-4515,-4489,4637
1721678190.681763,75,43,1021,-4322,-3667,3736,-3985,34704,75488,,, 158211.600, 40.0101780,-105.2442063, 1585.021,1606.349, 7.533,8.011
1721678190.691013,77,26,1025,-3981,-3430,1680
1721678190.700263,88,14,1032,-3876,-3308,-622
1721678190.709513,97,18,1030,-4270,-3080,-2993
1721678190.718763,103,27,1026,-4952,-2853,-4690
1721678190.728013,115,34,1022,-5521,-2757,-5784
1721678190.737263,130,51,1012,-5923,-2713,-6545
1721678190.746513,136,77,1006,-6396,-2809,-7175
1721678190.755768,147,90,1000,-6448,-3247,-7473,-4187,35021,75244,84529,33118
1721678190.765018,149,95,993,-5897,-3964,-6729
1721678190.774268,143,107,990,-5258,-4725,-5985
1721678190.783518,136,110,987,-4550,-5565,-5207
1721678190.792768,121,98,987,-3561,-6388,-3675
1721678190.802018,106,87,987,-2117,-7254,-1663
1721678190.811268,87,73,991,-1163,-7709,498
1721678190.820518,70,55,1001,-551,-7919,1680
1721678190.829865,57,48,1007,-175,-7832,2441,,,,84526,33122, 158211.700, 40.0101764,-105.2442057, 1584.817,1606.145, 7.472,7.968
1721678190.839115,52,45,1011,-245,-7359,3596
1721678190.848365,46,61,1011,-490,-6764,4725
1721678190.857615,43,59,1012,-752,-6257,5267
1721678190.866865,35,36,1018,-621,-5793,5547
1721678190.876115,24,16,1027,-481,-5250,5862
1721678190.885365,26,1,1036,-726,-4638,6221
1721678190.894615,34,-6,1037,-1400,-3903,6728
1721678190.903870,45,-5,1035,-2520,-3150,6300,-4888,34771,75024,84527,33126, 158211.800, 40.0101761,-105.2442052, 1584.677,1606.005, 7.407,7.915
1721678190.913120,53,11,1028,-3920,-2555,4838
1721678190.922370,64,27,1022,-5267,-2135,3158
1721678190.931620,68,50,1023,-6186,-2004,1618
1721678190.940870,64,62,1029,-6868,-1917,-9
1721678190.950120,85,72,1035,-7035,-1768,-2135
1721678190.959370,96,79,1038,-6930,-1409,-4524
1721678190.968620,88,60,1040,-6623,-1400,-6703
1721678190.977875,101,69,1048,-6177,-1602,-7044,-5059,35180,74786
1721678190.987125,109,84,1048,-6212,-1514,-5872
1721678190.996375,103,74,1050,-6046,-1637,-5478
1721678191.005625,115,80,1046,-5740,-1934,-5163
1721678191.014875,143,98,1031,-5766,-1969,-3973
1721678191.024125,155,115,1013,-5652,-2293,-2958
1721678191.033375,153,125,998,-5171,-3185,-2783
1721678191.042625,145,117,995,-4348,-4262,-2468
1721678191.051880,131,103,1000,-3115,-5329,-1225,-5511,35412,74566,84527,33126, 158211.900, 40.0101763,-105.2442053, 1584.593,1605.921, 7.348,7.871
1721678191.061130,107,98,1004,-2065,-6370,752
1721678191.070380,93,97,1006,-1268,-7132,3613
1721678191.079630,81,95,1007,-647,-7412,7218
1721678191.088880,68,95,1005,-131,-7578,8767
1721678191.098130,55,78,1006,333,-7683,8356
1721678191.107380,54,67,1009,797,-7569,8592
1721678191.116630,55,76,1010,1042,-7482,10053
1721678191.125885,52,80,1012,1059,-7525,11068,-6536,35009,74420,84525,33140, 158212.000, 40.0101767,-105.2442054, 1584.607,1605.935, 7.292,7.832
1721678191.135135,40,61,1015,1208,-7692,10683
1721678191.144385,28,44,1015,1532,-7919,9730
1721678191.153635,15,19,1014,1540,-7893,9222
1721678191.162885,6,10,1017,1147,-7578,9318
1721678191.172135,9,17,1022,105,-7044,9625
1721678191.181385,15,33,1025,-1181,-6213,9397
1721678191.190635,20,42,1024,-2240,-5513,8120
1721678191.199891,29,43,1024,-2922,-4900,6842,-7293,35046,74047,84532,33144, 158212.100, 40.0101758,-105.2442051, 1584.454,1605.782, 7.234,7.786
1721678191.209141,38,45,1022,-3395,-4375,6650
1721678191.218391,44,48,1017,-3841,-3990,7201
1721678191.227641,49,45,1010,-4217,-3982,7752
1721678191.236891,56,44,1003,-4672,-3973,7656
1721678191.246141,66,54,1002,-5223,-4017,7035
1721678191.255391,75,65,1000,-5818,-4192,6151
1721678191.264641,81,67,1004,-6326,-4515,5110
1721678191.273896,83,61,1009,-6623,-4988,3771
1721678191.283146,77,75,1015,-6921,-5574,2878
1721678191.292396,73,90,1020,-7280,-6117,3045
1721678191.301646,69,86,1022,-7341,-6519,3788
1721678191.310896,68,82,1026,-7175,-6729,4733
1721678191.320146,75,78,1026,-6938,-6922,6002
1721678191.329396,89,85,1022,-6895,-7219,7271
1721678191.338646,91,104,1016,-7026,-7718,8960
1721678191.347901,90,118,1005,-7061,-8488,9450,-8221,35351,73669,84528,33144, 158212.200, 40.0101750,-105.2442051, 1584.280,1605.608, 7.180,7.736
1721678191.357151,83,127,996,-6798,-9398,7840
1721678191.366401,65,126,997,-6238,-10299,5827
1721678191.375651,38,100,1006,-5398,-11060,4033
1721678191.384901,22,87,1011,-4646,-11507,2388
1721678191.394151,0,79,1012,-4357,-11533,1400
1721678191.403401,-7,75,1018,-4453,-11209,1190
1721678191.412651,-16,87,1020,-4803,-10527,1767
1721678191.421906,-21,102,1020,-5075,-9862,3543,-9313,35516,72967,84532,33144, 158212.300, 40.0101749,-105.2442052, 1584.231,1605.559, 7.119,7.675
1721678191.431156,-25,102,1020,-5031,-9205,4917
1721678191.440406,-28,106,1018,-4891,-8400,4970
1721678191.449656,-32,126,1012,-4891,-7552,4515
1721678191.458906,-31,145,1006,-4777,-6668,4278
1721678191.468156,-33,146,1000,-4138,-5872,3158
1721678191.477406,-40,134,999,-3290,-4979,1207
1721678191.486656,-43,110,1007,-2345,-4227,-1199
1721678191.495942,-40,105,1015,-1776,-3317,-3430,-9765,35540,72692,,, 158212.400, 40.0101738,-105.2442051, 1584.057,1605.385, 7.059,7.615
1721678191.505192,-32,128,1016,-1872,-2293,-3920
1721678191.514442,-26,158,1012,-1925,-1322,-2809
1721678191.523692,-19,169,1007,-1452,-517,-1768
1721678191.532942,-14,167,1012,-315,323,-1803
1721678191.542192,-15,155,1020,1112,1067,-2870
1721678191.551442,-16,139,1034,2424,1636,-4559
1721678191.560692,-12,101,1048,3544,2310,-6117
1721678191.569947,-1,79,1057,4174,3115,-7350,-9588,35400,72839,84534,33153
1721678191.579197,20,90,1054,3894,3727,-6790
1721678191.588447,50,112,1040,3247,4068,-4428
1721678191.597697,68,132,1022,2704,3876,-2660
1721678191.606947,77,147,1007,2415,3141,-3649
1721678191.616197,74,154,995,2695,1846,-5198
1721678191.625447,73,136,991,3597,358,-5452
1721678191.634697,73,110,995,4612,-963,-5749
1721678191.643952,66,97,995,5224,-2135,-5688,-10113,34991,72741,84524,33153, 158212.500, 40.0101707,-105.2442048, 1583.597,1604.925, 6.987,7.533
1721678191.653202,58,76,994,5635,-3527,-4297
1721678191.662452,50,50,997,5924,-4795,-2818
1721678191.671702,47,41,994,5705,-5977,-1873
1721678191.680952,32,32,992,4962,-7053,-945
1721678191.690202,15,52,993,3990,-8260,-53
1721678191.699452,8,65,999,2984,-9162,385
1721678191.708702,-9,63,1005,2153,-9660,-1015
1721678191.717957,-30,57,1014,1523,-10177,-4288,,,,84526,33162, 158212.600, 40.0101673,-105.2442043, 1583.005,1604.333, 6.900,7.441
1721678191.727207,-47,61,1023,980,-10553,-6344
1721678191.736457,-68,61,1025,237,-10413,-6580
1721678191.745707,-85,61,1025,-393,-10010,-6020
1721678191.754957,-93,65,1026,-936,-9310,-4262
1721678191.764207,-114,64,1030,-1443,-8112,-2144
1721678191.773457,-110,76,1029,-2187,-6895,-622
1721678191.782707,-109,88,1030,-2887,-5355,420
1721678191.791962,-103,104,1028,-3613,-3920,-875,-10662,35107,72369,,, 158212.700, 40.0101677,-105.2442039, 1583.161,1604.489, 6.814,7.359
1721678191.801212,-100,124,1026,-4383,-2529,-3973
1721678191.810462,-99,111,1019,-4830,-1252,-6729
1721678191.819712,-83,146,1016,-4882,157,-7683
1721678191.828962,-55,155,1010,-4628,1505,-2730
1721678191.838212,-59,154,1008,-4121,2572,-1330
1721678191.847462,-59,163,1008,-3430,3255,-2293
1721678191.856712,-63,167,1010,-2703,4077,-3465
1721678191.865967,-55,158,1013,-1863,5013,-5049,-10449,35260,72192,84531,33168
1721678191.875217,-42,142,1017,-997,6072,-6204
1721678191.884467,-21,126,1021,-210,6903,-5565
1721678191.893717,-12,136,1022,132,7350,-4507
1721678191.902967,2,151,1017,105,7428,-3037
1721678191.912217,14,157,1012,298,7402,-2372
1721678191.921467,21,168,1008,963,7087,-2547
1721678191.930717,24,168,1003,1873,6518,-3080
1721678191.939972,26,153,1004,3019,5862,-4034,-10211,35125,72558,84528,33172, 158212.800, 40.0101680,-105.2442035, 1583.324,1604.652, 6.709,7.254
1721678191.949222,16,118,1012,4375,5145,-4900
1721678191.958472,9,114,1021,5487,4340,-4909
1721678191.967722,2,104,1026,5933,3797,-3492
1721678191.976972,0,88,1028,6230,3491,-2503
1721678191.986222,0,85,1027,6414,3228,-1558
1721678191.995472,-7,73,1026,6248,2878,-105
1721678192.004722,-16,65,1029,5828,2668,770
1721678192.013977,-20,76,1031,5163,2485,1303,-10198,34759,72882,84533,33179, 158212.900, 40.0101683,-105.2442028, 1583.515,1604.843, 6.602,7.144
1721678192.023227,-15,94,1028,4349,2502,1977
1721678192.032477,-11,121,1023,3667,2581,1977
1721678192.041727,-16,137,1016,3299,2528,673
1721678192.050977,-22,125,1016,3632,2345,-1243
1721678192.060227,-25,106,1019,4402,2213,-2923
1721678192.069477,-27,74,1024,4918,2292,-2853
1721678192.078727,-22,61,1025,4962,2458,-1847
1721678192.087983,-18,60,1027,4489,2703,140,,,,,, 158213.000, 40.0101693,-105.2442023, 1583.822,1605.150, 6.493,7.029
1721678192.097233,-12,66,1027,3684,2922,2607
1721678192.106483,0,86,1024,2669,3281,4130
1721678192.115733,5,109,1018,1803,3447,3876
1721678192.124983,12,128,1014,1418,3456,1863
1721678192.134233,17,137,1013,1418,3500,96
1721678192.143483,21,122,1014,1995,3447,-1365
1721678192.152733,25,102,1014,2827,3211,-3500
1721678192.162018,26,82,1013,3395,2992,-4804,-10223,34539,73004,84532,33186
1721678192.171268,32,63,1014,3562,2791,-4813
1721678192.180518,29,67,1018,3369,2590,-4034
1721678192.189768,26,60,1020,2940,2345,-2135
1721678192.199018,31,59,1021,2538,2222,-403
1721678192.208268,39,66,1018,1925,2222,218
1721678192.217518,48,74,1013,1374,2196,568
1721678192.226768,48,72,1007,1007,1933,761
1721678192.236023,46,79,1003,744,1391,726,-10253,34521,73150,84535,33190, 158213.100, 40.0101694,-105.2442019, 1583.932,1605.260, 6.394,6.915
1721678192.245273,38,78,1000,438,875,-289
1721678192.254523,26,68,1000,385,236,-1619
1721678192.263773,18,69,999,315,-280,-2870
1721678192.273023,5,72,1001,-210,-578,-4279
1721678192.282273,-4,69,1013,-577,-805,-4918
1721678192.291523,-9,82,1020,-831,-727,-4253
1721678192.300773,-8,95,1019,-1356,-385,-3264
1721678192.310028,-3,103,1018,-1513,122,-1549,-10333,34558,73040,84532,33192, 158213.200, 40.0101699,-105.2442019, 1584.007,1605.335, 6.294,6.798
1721678192.319278,-8,121,1018,-1408,437,8
1721678192.328528,-15,125,1017,-1338,621,-595
1721678192.337778,-20,125,1019,-1120,936,-2687
1721678192.347028,-27,133,1022,-840,1260,-4585
1721678192.356278,-24,147,1022,-481,1601,-5635
1721678192.365528,-20,148,1021,-105,2082,-5758
1721678192.374778,-8,144,1019,639,2660,-5268
1721678192.384034,3,151,1015,1444,3080,-4130,-10205,34472,73315,,, 158213.300, 40.0101682,-105.2442014, 1583.646,1604.974, 6.192,6.663
1721678192.393284,14,155,1008,1969,3255,-3203
1721678192.402534,24,137,1004,2774,3316,-2468
1721678192.411784,22,112,1008,3745,3158,-2065
1721678192.421034,18,94,1016,4489,2712,-2652
1721678192.430284,26,98,1020,4568,2467,-2932
1721678192.439534,27,100,1021,4428,2275,-1628
1721678192.448784,29,106,1023,4480,1968,-263
1721678192.458130,28,105,1025,4603,1575,-97,-10253,34027,73370,84524,33203
1721678192.467380,37,98,1026,4787,1268,-945
1721678192.476630,40,92,1025,5014,927,-1427
1721678192.485880,46,72,1025,5329,393,-2118
1721678192.495130,45,60,1026,5373,-228,-3474
1721678192.504380,42,50,1026,4979,-797,-4332
1721678192.513630,37,42,1026,4559,-1470,-3990
1721678192.522880,34,41,1024,4052,-2074,-2398
1721678192.532044,29,37,1026,3457,-2617,-1033,,,,84529,33197, 158213.400, 40.0101675,-105.2442011, 1583.436,1604.764, 6.091,6.527
1721678192.541294,21,23,1029,2739,-2993,-1252
1721678192.550544,13,17,1034,1917,-3290,-2625
1721678192.559794,0,35,1033,770,-3614,-2818
1721678192.569044,-2,61,1029,-437,-3675,-1138
1721678192.578294,-4,82,1023,-1260,-3553,192
1721678192.587544,-11,87,1020,-1653,-3483,-1418
1721678192.596794,-21,82,1023,-1750,-3422,-4638
1721678192.606049,-32,80,1026,-1627,-3299,-6248,-10504,33923,73260,84530,33203, 158213.500, 40.0101662,-105.2442010, 1583.089,1604.417, 5.998,6.406
1721678192.615299,-30,90,1026,-1662,-2949,-5329
1721678192.624549,-23,93,1023,-1680,-2398,-2862
1721678192.633799,-22,81,1021,-1592,-1803,-1120
1721678192.643049,-20,85,1022,-1513,-1278,-1374
1721678192.652299,-24,97,1022,-1706,-919,-1103
1721678192.661549,-20,128,1018,-1863,-552,-324
1721678192.670799,-22,154,1013,-1968,-79,-140
1721678192.680054,-25,157,1010,-1382,280,-1129,-10632,33972,73150
1721678192.689304,-30,144,1012,-183,603,-2468
1721678192.698554,-26,117,1017,1129,1067,-3842
1721678192.707804,-17,107,1020,2092,1575,-3885
1721678192.717054,-10,108,1020,2669,1977,-2582
1721678192.726304,-7,97,1019,3045,2415,-2013
1721678192.735554,-5,77,1020,3430,2826,-2100
1721678192.744804,2,63,1019,3850,3193,-2004
1721678192.754059,8,61,1018,3912,3561,-1715,-10522,33801,73333,84525,33201, 158213.600, 40.0101665,-105.2442015, 1582.944,1604.272, 5.906,6.288
1721678192.763309,9,60,1017,3693,3710,-1007
1721678192.772559,15,52,1018,3422,3797,-1190
1721678192.781809,21,44,1016,3194,3797,-2783
1721678192.791059,28,38,1015,2827,3666,-4970
1721678192.800309,31,43,1017,2267,3342,-5907
1721678192.809559,31,42,1021,1575,3036,-5312
1721678192.818809,29,47,1026,1164,2695,-4297
1721678192.828064,27,59,1025,552,2441,-3579,-10449,33740,73364,84525,33208, 158213.700, 40.0101653,-105.2442017, 1582.585,1603.913, 5.821,6.181
1721678192.837314,26,61,1022,-26,2310,-2818
1721678192.846564,23,50,1023,-306,2213,-1505
1721678192.855814,22,53,1021,-481,1977,-578
1721678192.865064,22,75,1013,-1155,1758,17
1721678192.874314,19,83,1009,-1811,1505,516
1721678192.883564,12,70,1015,-1916,1137,-849
1721678192.892814,3,63,1024,-2047,752,-4314
1721678192.902100,0,89,1030,-2738,568,-6650,-10369,33880,73345,84527,33221, 158213.800, 40.0101677,-105.2442024, 1582.817,1604.145, 5.739,6.085
1721678192.911350,-2,111,1033,-3290,481,-5740
1721678192.920600,9,137,1027,-3307,586,-3702
1721678192.929850,12,152,1021,-2843,752,-2372
1721678192.939100,12,152,1020,-1933,647,-1645
1721678192.948350,10,141,1019,-638,472,-1418
1721678192.957600,10,126,1017,683,245,-2293
1721678192.966850,6,104,1014,1645,113,-3334
1721678192.976105,6,74,1019,2363,17,-4095
1721678192.985355,10,56,1024,2652,-62,-4935
1721678192.994605,11,47,1030,2293,0,-5154
1721678193.003855,10,64,1030,1602,-18,-3395
1721678193.013105,15,78,1027,858,43,-1383
1721678193.022355,17,95,1024,438,43,-298
1721678193.031605,13,100,1021,298,8,586
1721678193.040855,19,95,1020,543,-79,1050
1721678193.050110,20,87,1017,928,-149,787,-10473,33764,73443,84527,33221, 158213.900, 40.0101700,-105.2442032, 1583.048,1604.376, 5.658,5.994
1721678193.059360,20,79,1015,1173,-412,262
1721678193.068610,20,64,1015,1217,-595,-508
1721678193.077860,21,45,1019,1120,-735,-1995
1721678193.087110,21,44,1025,805,-884,-2862
1721678193.096360,20,63,1025,-43,-1007,-2354
1721678193.105610,23,82,1023,-918,-1164,-1269
1721678193.114860,20,107,1018,-1338,-1252,-429
1721678193.124115,14,125,1014,-1338,-1470,113,-10668,33905,73406,84532,33234, 158214.000, 40.0101722,-105.2442038, 1583.261,1604.589, 5.583,5.906
1721678193.133365,7,125,1013,-805,-1680,-525
1721678193.142615,-4,111,1014,35,-1759,-2932
1721678193.151865,-20,78,1020,954,-1759,-5137
1721678193.161115,-27,67,1025,1610,-1575,-5180
1721678193.170365,-25,77,1025,1479,-1112,-3938
1721678193.179615,-23,90,1019,1015,-525,-3255
1721678193.188865,-16,101,1017,832,52,-2547
1721678193.198121,-7,104,1017,893,533,-1575,-10589,33825,73535,84527,33229, 158214.100, 40.0101731,-105.2442041, 1583.289,1604.617, 5.518,5.822
1721678193.207371,-7,97,1019,1199,831,-1532
1721678193.216621,-5,102,1021,1532,997,-2223
1721678193.225871,-8,106,1021,1812,1093,-2389
1721678193.235121,-12,104,1022,2074,1260,-2407
1721678193.244371,-18,86,1023,2555,1443,-3360
1721678193.253621,-22,64,1029,3002,1531,-5014
1721678193.262871,-19,64,1031,3002,1898,-6082
1721678193.272126,-13,72,1026,2529,2301,-5802,-10400,33789,73687
1721678193.281376,-8,74,1021,2240,2677,-4244
1721678193.290626,0,73,1020,2214,3010,-3168
1721678193.299876,9,77,1014,2100,3325,-3238
1721678193.309126,11,85,1015,2118,3482,-2967
1721678193.318376,8,65,1020,2389,3447,-2267
1721678193.327626,8,53,1023,2669,3421,-3360
1721678193.336876,7,54,1019,2485,3351,-4524
1721678193.346131,6,43,1016,2275,3307,-4550,,,,84523,33229, 158214.200, 40.0101722,-105.2442042, 1583.065,1604.393, 5.453,5.735
1721678193.355381,11,23,1017,2135,3351,-4314
1721678193.364631,18,22,1016,1654,3377,-3964
1721678193.373881,23,36,1013,823,3377,-3115
1721678193.383131,28,30,1018,-26,3246,-1584
1721678193.392381,40,35,1021,-595,3211,-735
1721678193.401631,47,54,1017,-1452,3053,-490
1721678193.410881,45,76,1012,-2248,2721,78
1721678193.420136,47,99,1007,-2590,2161,1006,-10235,33721,73724,84531,33238, 158214.300, 40.0101715,-105.2442044, 1582.883,1604.211, 5.389,5.653
1721678193.429386,45,109,1004,-2590,1566,1802
1721678193.438636,45,113,1003,-2231,980,1373
1721678193.447886,30,94,1009,-1610,288,-132
1721678193.457136,27,97,1013,-1085,-385,-1733
1721678193.466386,23,114,1014,-1015,-753,-1715
1721678193.475636,20,110,1017,-866,-1007,-692
1721678193.484886,25,111,1020,-332,-1243,-27
1721678193.494172,23,104,1019,97,-1313,96,-10290,33496,73626,84527,33238, 158214.400, 40.0101706,-105.2442044, 1582.639,1603.967, 5.333,5.580
1721678193.503422,20,97,1021,517,-1558,288
1721678193.512672,14,90,1027,893,-1847,192
1721678193.521922,4,95,1027,972,-2092,-762
1721678193.531172,0,106,1025,788,-2100,-937
1721678193.540422,2,104,1023,989,-1934,-193
1721678193.549672,0,93,1021,1514,-1777,-753
1721678193.558922,-2,80,1021,1969,-1575,-1812
1721678193.568268,-5,69,1026,2240,-1304,-2407,-10461,33325,73687
1721678193.577518,-4,61,1027,2223,-1138,-2888
1721678193.586768,-3,47,1030,2205,-849,-3045
1721678193.596018,2,48,1029,1978,-552,-3063
1721678193.605268,11,56,1024,1497,-263,-3290
1721678193.614518,18,66,1022,1138,-158,-2958
1721678193.623768,20,65,1022,980,-228,-2424
1721678193.633018,15,58,1023,902,-307,-3037
1721678193.642273,22,68,1021,858,-368,-3203,-10559,33343,73730,84528,33254, 158214.500, 40.0101700,-105.2442045, 1582.450,1603.778, 5.284,5.516
1721678193.651523,24,69,1017,779,-499,-1882
1721678193.660773,24,66,1017,928,-622,-692
1721678193.670023,24,62,1019,972,-788,-945
1721678193.679273,22,61,1018,1042,-998,-1339
1721678193.688523,17,52,1019,1085,-1208,-989
1721678193.697773,13,40,1022,989,-1444,-1260
1721678193.707023,6,37,1025,622,-1610,-2065
1721678193.716278,3,44,1024,44,-1829,-2074,-10791,33294,73468,84527,33247, 158214.600, 40.0101702,-105.2442051, 1582.329,1603.657, 5.232,5.444
1721678193.725528,3,59,1021,-647,-1908,-1182
1721678193.734778,4,74,1018,-1286,-1812,35
1721678193.744028,1,80,1016,-1496,-1899,761
1721678193.753278,-2,90,1014,-1470,-2048,315
1721678193.762528,-6,92,1014,-1426,-2065,-875
1721678193.771778,-15,82,1019,-1207,-2013,-2214
1721678193.781028,-27,69,1021,-787,-1995,-3430
1721678193.790284,-29,64,1025,-595,-1768,-3877,,,,,, 158214.700, 40.0101717,-105.2442054, 1582.499,1603.827, 5.178,5.375
1721678193.799534,-33,60,1033,-857,-1400,-4209
1721678193.808784,-26,60,1039,-1181,-875,-3290
1721678193.818034,-19,76,1034,-1417,-324,-744
1721678193.827284,-9,98,1025,-1820,210,980
1721678193.836534,-5,116,1015,-1977,673,1260
1721678193.845784,0,120,1010,-1505,927,1190
1721678193.855034,0,106,1009,-630,1041,1015
1721678193.864289,-8,85,1012,263,1085,-499,-10845,33306,73516,84525,33260
1721678193.873539,-10,65,1014,805,1023,-2328
1721678193.882789,-16,37,1020,1077,1085,-2958
1721678193.892039,-10,20,1025,893,1242,-3115
1721678193.901289,-1,33,1027,27,1627,-1960
1721678193.910539,9,62,1022,-1067,1881,953
1721678193.919789,12,79,1016,-1723,2073,3543
1721678193.929039,15,91,1012,-1960,2196,3578
1721678193.938294,20,97,1007,-1890,2178,3211,-10864,33361,73583,84530,33262, 158214.800, 40.0101730,-105.2442062, 1582.647,1603.975, 5.129,5.315
1721678193.947544,18,87,1009,-1470,2021,3001
1721678193.956794,20,75,1009,-1006,1671,1505
1721678193.966044,22,58,1013,-831,1268,-202
1721678193.975294,26,59,1013,-971,910,-683
1721678193.984544,24,58,1015,-1295,446,-88
1721678193.993794,30,74,1017,-1750,52,1540
1721678194.003044,23,87,1023,-2205,-219,3106
1721678194.012299,6,100,1027,-2301,-700,2625,-11102,33459,73522,84525,33260, 158214.900, 40.0101737,-105.2442067, 1582.734,1604.062, 5.085,5.260
1721678194.021549,0,100,1031,-2135,-1085,1592
1721678194.030799,-8,97,1035,-1680,-1094,1977
1721678194.040049,-14,88,1031,-1163,-1033,2213
1721678194.049299,-16,83,1031,-647,-928,1513
1721678194.058549,-23,85,1029,-428,-692,927
1721678194.067799,-29,73,1031,-236,-385,1601
1721678194.077049,-22,131,1025,79,0,1697
1721678194.086304,-38,130,1031,184,315,-158,-11218,33166,73535,,, 158215.000, 40.0101742,-105.2442069, 1582.771,1604.099, 5.055,5.224
1721678194.095554,-41,76,1043,937,770,-5417
1721678194.104804,-41,33,1051,1628,1837,-5679
1721678194.114054,-22,25,1051,1680,2528,1645
1721678194.123304,-5,46,1044,1050,3368,10841
1721678194.132554,14,65,1033,245,3841,13492
1721678194.141804,0,48,1030,-315,3955,8015
1721678194.151054,-2,39,1038,-612,3675,1986
1721678194.160309,14,71,1032,-1076,3613,-552,-11163,33172,73608,84534,33271
1721678194.169559,27,107,1017,-1610,3482,-53
1721678194.178809,20,98,1011,-1697,3018,-1024
1721678194.188059,8,105,1014,-1260,2572,-2153
1721678194.197309,-14,130,1009,-988,2231,-44
1721678194.206559,-30,87,1010,-568,2047,910
1721678194.215809,-23,82,1011,123,2476,455
1721678194.225059,3,94,1001,114,3193,3465
1721678194.234375,3,71,999,70,3605,7183,,,,84523,33271, 158215.100, 40.0101752,-105.2442075, 1582.914,1604.242, 5.039,5.206
1721678194.243625,42,60,1005,403,3710,8645
1721678194.252875,80,69,1008,307,3473,9301
1721678194.262125,92,58,1007,-245,2633,8820
1721678194.271375,83,53,1006,-717,1137,8015
1721678194.280625,65,57,1012,-1216,-394,9126
1721678194.289875,41,70,1014,-1688,-1689,10386
1721678194.299125,29,85,1016,-2003,-2652,9957
1721678194.308381,10,79,1015,-2161,-3150,8233,-11566,32781,73577,84525,33278, 158215.200, 40.0101761,-105.2442081, 1583.031,1604.359, 5.022,5.186
1721678194.317631,9,49,1018,-1942,-3483,5766
1721678194.326881,18,24,1016,-1925,-3614,5608
1721678194.336131,19,44,1011,-2458,-3667,9222
1721678194.345381,21,68,1009,-3220,-4025,12722
1721678194.354631,12,70,1010,-3727,-4515,10815
1721678194.363881,4,72,1013,-4042,-4918,6265
1721678194.373131,0,88,1018,-4130,-5224,5057
1721678194.382386,-14,110,1023,-4138,-5277,5127,-12274,32659,73193
1721678194.391636,-24,113,1026,-4016,-5215,4060
1721678194.400886,-30,109,1031,-3395,-4743,2730
1721678194.410136,-29,105,1030,-2642,-3973,2310
1721678194.419386,-22,105,1029,-1933,-3019,2878
1721678194.428636,-12,89,1033,-1478,-1995,3097
1721678194.437886,-4,87,1033,-1076,-1199,2336
1721678194.447136,2,89,1031,-892,-595,3027
1721678194.456391,8,83,1030,-752,-219,4707,-12725,32470,73156,84531,33278, 158215.300, 40.0101784,-105.2442085, 1583.296,1604.624, 5.005,5.165
1721678194.465641,17,67,1028,-525,140,5477
1721678194.474891,22,62,1026,-420,262,5897
1721678194.484141,24,67,1021,-516,61,6728
1721678194.493391,27,71,1016,-787,-167,7472
1721678194.502641,27,64,1012,-831,-482,7428
1721678194.511891,31,55,1012,-743,-937,6475
1721678194.521141,34,59,1009,-822,-1409,5845
1721678194.530396,25,58,1007,-1050,-2004,5241,-13189,32281,72875,84530,33284, 158215.400, 40.0101804,-105.2442097, 1583.575,1604.903, 4.983,5.138
1721678194.539646,13,41,1012,-1137,-2748,4418
1721678194.548896,11,38,1020,-1268,-3264,3465
1721678194.558146,8,47,1024,-1890,-3605,2178
1721678194.567396,1,60,1021,-2677,-3877,1155
1721678194.576646,5,71,1017,-3123,-4078,1828
1721678194.585896,7,77,1014,-3342,-4305,2756
1721678194.595146,7,87,1011,-3403,-4498,3010
1721678194.604401,3,89,1011,-3508,-4717,2590,,,,84527,33289, 158215.500, 40.0101815,-105.2442096, 1583.760,1605.088, 4.963,5.118
1721678194.613651,-5,91,1014,-3290,-5040,1846
1721678194.622901,-11,88,1012,-2975,-5277,1627
1721678194.632151,-13,84,1016,-2800,-5207,2082
1721678194.641401,-22,77,1024,-2546,-5093,2108
1721678194.650651,-34,75,1032,-2493,-5075,1286
1721678194.659901,-40,77,1033,-2721,-4787,70
1721678194.669151,-42,85,1033,-3071,-4340,-622
1721678194.678406,-52,103,1029,-3272,-3877,-237,-13732,32385,72576
1721678194.687656,-57,111,1026,-3438,-3518,498
1721678194.696906,-56,125,1023,-3246,-2870,1015
1721678194.706156,-60,128,1019,-2878,-2127,1233
1721678194.715406,-57,126,1017,-2248,-1514,-62
1721678194.724656,-48,124,1014,-1627,-744,-718
1721678194.733906,-34,120,1013,-1032,0,-210
1721678194.743156,-28,115,1012,-358,551,148
1721678194.752411,-19,109,1015,140,848,43,-13879,32403,72601,84525,33291, 158215.600, 40.0101832,-105.2442104, 1583.927,1605.255, 4.944,5.105
1721678194.761661,-13,106,1017,464,1041,-219
1721678194.770911,-9,104,1019,735,1225,-228
1721678194.780161,-399,87,1000,928,1172,43
1721678194.789411,-555,161,982,805,1916,1715
1721678194.798661,-412,201,969,1217,8881,7953
1721678194.807911,-165,212,983,2765,16590,10045
1721678194.817161,-58,194,999,4454,21831,9625
1721678194.826416,-50,119,1011,5618,24106,735,-12847,32031,73309,84527,33297, 158215.700, 40.0101848,-105.2442109, 1584.112,1605.440, 4.920,5.089
1721678194.835666,-35,39,1021,6292,24885,-10815
1721678194.844916,30,34,1033,6397,25488,-12627
1721678194.854166,100,48,1040,5469,25847,-6869
1721678194.863416,152,61,1043,4340,25585,-429
1721678194.872666,181,67,1042,3465,23966,1470
1721678194.881916,191,61,1037,2800,21822,-919
1721678194.891166,198,65,1032,2407,19223,-3019
1721678194.900452,199,62,1031,1803,16257,-3737,-11987,32171,73852,84529,33300, 158215.800, 40.0101854,-105.2442110, 1584.216,1605.544, 4.907,5.077
1721678194.909702,201,80,1028,1348,13142,-4297
1721678194.918952,194,95,1020,718,9931,-5259
1721678194.928202,190,109,1012,438,6816,-6510
1721678194.937452,176,106,1006,490,3867,-7788
1721678194.946702,67,92,997,945,988,-8234
1721678194.955952,-316,-41,979,1435,-1505,-8322
1721678194.965202,-373,44,967,1155,-1549,-3465
1721678194.974457,-631,0,962,97,4235,20291,-10455,31823,74810
1721678194.983707,-658,61,967,-805,9940,34833
1721678194.992957,-618,34,964,-1592,20746,52850
1721678195.002207,-518,1,967,-1583,32147,58800
1721678195.011457,-313,51,969,-3316,41912,43032
1721678195.020707,-123,90,969,-5757,49708,16205
1721678195.029957,25,98,979,-7280,55081,-16678
1721678195.039207,185,111,990,-7665,57146,-41904
1721678195.048462,299,201,1006,-7525,57155,-53883,,,,84531,33306, 158215.900, 40.0101854,-105.2442108, 1584.265,1605.593, 4.900,5.069
1721678195.057712,331,243,1013,-7008,55028,-58827
1721678195.066962,-7,79,997,-4961,51826,-60927
1721678195.076212,-453,-51,962,-1968,49542,-52343
1721678195.085462,-447,-106,934,-700,54171,-7298
1721678195.094712,-428,-275,894,-3097,63358,-1199
1721678195.103962,241,-48,823,-7026,71776,-17877
1721678195.113212,1024,287,763,-12075,78277,-21272
1721678195.122467,1262,470,783,-12626,73727,-20038,-4895,33264,76477,84532,33322, 158216.000, 40.0101866,-105.2442109, 1584.448,1605.776, 4.891,5.057
1721678195.131717,1109,560,844,-8645,58800,-12189
1721678195.140967,987,432,901,-2747,41912,-4813
1721678195.150217,915,152,945,3614,27615,-4183
1721678195.159467,827,-36,976,7840,15260,-315
1721678195.168717,718,-108,1006,7832,3587,4016
1721678195.177967,616,-100,1042,4918,-6747,7761
1721678195.187217,413,-75,1086,989,-15567,12600
1721678195.196473,222,40,1104,-3036,-22453,15697,-5273,32861,76525,84536,33313, 158216.100, 40.0101871,-105.2442114, 1584.391,1605.719, 4.887,5.050
1721678195.205723,66,173,1094,-6238,-26032,15618
1721678195.214973,-26,366,1070,-7157,-26828,15015
1721678195.224223,-89,521,1074,-5372,-25367,12101
1721678195.233473,-146,534,1113,-770,-22313,6151
1721678195.242723,-165,483,1167,6239,-18620,1321
1721678195.251973,-148,327,1191,13782,-13878,3053
1721678195.261223,-86,41,1182,19942,-8733,5827
1721678195.270478,39,-176,1147,22960,-3990,3088,-5645,31866,76794
1721678195.279728,186,-285,1113,22322,-797,-1759
1721678195.288978,195,-361,1081,19145,341,-3264
1721678195.298228,70,-326,1044,13974,271,-6213
1721678195.307478,310,247,994,7727,446,-8514
1721678195.316728,250,65,972,4340,1373,-2179
1721678195.325978,254,41,950,5539,-105,-1392
1721678195.335228,211,-29,925,5084,-1112,-3299
1721678195.344483,244,16,959,4375,-2328,-2844,-5841,31500,76965,84526,33322, 158216.200, 40.0101879,-105.2442118, 1584.434,1605.762, 4.882,5.045
1721678195.353733,313,167,977,3045,-3220,-1680
1721678195.362983,325,272,997,2065,-4358,726
1721678195.372233,355,332,1000,2993,-5749,2012
1721678195.381483,355,305,1003,5583,-7490,-823
1721678195.390733,343,188,1006,9039,-9958,-4568
1721678195.399983,316,51,1006,11699,-12688,-6449
1721678195.409233,260,-111,989,12767,-15785,-6913
1721678195.418518,157,-189,956,11813,-17614,-4804,-6744,31243,76690,84527,33328, 158216.300, 40.0101883,-105.2442126, 1584.463,1605.791, 4.879,5.041
1721678195.427768,102,-160,923,8724,-18970,-2905
1721678195.437018,71,-94,920,4655,-18673,-4253
1721678195.446268,119,-15,925,1357,-17772,-3973
1721678195.455518,85,55,926,-1023,-16293,-1978
1721678195.464768,50,95,937,-2598,-15532,-2197
1721678195.474018,-20,129,941,-2835,-14149,-2293
1721678195.483268,-102,136,948,-2791,-12347,-2870
1721678195.492737,-194,94,972,-2231,-9905,-4655,,,,,, 158216.400, 40.0101892,-105.2442130, 1584.498,1605.826, 4.876,5.038
1721678195.501987,-124,85,981,-1671,-6038,-6248
1721678195.511237,-76,68,985,-1855,-814,-5933
1721678195.520487,-1,57,977,-2266,3438,-5014
1721678195.529737,65,33,968,-2975,7245,-4480
1721678195.538987,95,-26,966,-3465,9738,-4288
1721678195.548237,132,-51,977,-4541,11287,-3710
1721678195.557487,227,-19,989,-6842,12022,-4410
1721678195.566559,305,61,1008,-9310,11978,-4445,-5908,31719,76794,84530,33332
1721678195.575809,314,118,1023,-10972,10613,-3212
1721678195.585059,273,85,1040,-11287,8286,-4507
1721678195.594309,309,86,1063,-10928,5915,-6773
1721678195.603559,295,132,1048,-11042,4016,-6878
1721678195.612809,259,101,1031,-10675,1522,-2179
1721678195.622059,237,98,998,-10220,-420,-3273
1721678195.631309,252,94,972,-9826,-1785,-5609
1721678195.640564,252,131,924,-9336,-3037,-4515,-5718,32409,76495,84529,33339, 158216.500, 40.0101895,-105.2442142, 1584.540,1605.868, 4.875,5.036
1721678195.649814,200,130,914,-8688,-4848,-3763
1721678195.659064,93,134,910,-7568,-6493,-1882
1721678195.668314,190,95,925,-6720,-6484,35
1721678195.677564,206,15,984,-6142,-6204,-3719
1721678195.686814,198,45,1042,-6037,-6878,-3772
1721678195.696064,510,147,1064,-7183,-7517,1478
1721678195.705314,324,50,1117,-8207,-10045,4970
1721678195.714570,124,236,1142,-8146,-16144,2668,-6329,32733,76086,84525,33337, 158216.600, 40.0101891,-105.2442157, 1584.594,1605.922, 4.875,5.034
1721678195.723820,30,423,1116,-7822,-15995,-184
1721678195.733070,59,338,1052,-4532,-15217,7000
1721678195.742320,177,70,1043,438,-12828,-1637
1721678195.751570,127,5,1024,3457,-11734,-9809
1721678195.760820,88,85,996,3509,-12058,-11568
1721678195.770070,76,150,997,2634,-11603,-8348
1721678195.779320,144,205,1005,2643,-10544,-5023
1721678195.788575,210,164,1021,3605,-9092,-1129,-7031,32592,76068,,, 158216.700, 40.0101903,-105.2442186, 1584.798,1606.126, 4.871,5.030
1721678195.797825,210,99,1039,5005,-8890,1907
1721678195.807075,193,63,1055,5714,-9547,1137
1721678195.816325,191,28,1095,5574,-10430,1225
1721678195.825575,186,-22,1107,4690,-11069,2108
1721678195.834825,228,-53,1109,3527,-11970,1400
1721678195.844075,217,-178,1096,1750,-13458,-1435
1721678195.853325,164,-60,1084,-840,-14902,-3474
1721678195.862580,113,39,1057,-5005,-15855,-3168,,,,84528,33343
1721678195.871830,95,132,1036,-7393,-15584,-2958
1721678195.881080,123,262,997,-7787,-16529,-4778
1721678195.890330,168,337,971,-6650,-16905,-6108
1721678195.899580,124,296,939,-4068,-16765,-7639
1721678195.908830,72,266,941,-148,-17387,-11165
1721678195.918080,1,220,959,3308,-17378,-11507
1721678195.927330,-66,162,985,5784,-16337,-10588
1721678195.936585,-162,134,997,7368,-13624,-8899,-7812,32714,75653,84530,33354, 158216.800, 40.0101915,-105.2442227, 1585.041,1606.370, 4.866,5.022
1721678195.945835,-157,104,999,8217,-10395,-3982
1721678195.955085,9,37,983,8252,-5863,-1129
1721678195.964335,135,41,956,7517,-2022,-560
1721678195.973585,207,39,950,6458,-727,1155
1721678195.982835,197,-6,946,5417,-1015,2135
1721678195.992085,242,-50,972,4314,-2249,1610
1721678196.001335,223,-73,972,2503,-3422,1251
1721678196.010590,210,-74,998,114,-5128,-2127,-8032,32537,75659,84520,33354, 158216.900, 40.0101914,-105.2442224, 1584.919,1606.247, 4.854,5.003
1721678196.019840,229,-5,1025,-2738,-6248,-4393
1721678196.029090,261,39,1028,-5425,-7525,-4410
1721678196.038340,256,101,1029,-7595,-9258,-3273
1721678196.047590,174,193,1035,-8697,-11699,-6467
1721678196.056840,121,268,1041,-8513,-13379,-4725
1721678196.066090,181,303,1034,-6553,-14420,-2127
1721678196.075340,198,275,990,-3762,-14595,-2897
1721678196.084595,170,224,991,-743,-14350,-2372,-8990,32440,75061,,, 158217.000, 40.0101902,-105.2442223, 1584.874,1606.202, 4.842,4.985
1721678196.093845,123,189,986,2048,-15654,-1427
1721678196.103095,63,143,996,4288,-17002,-1164
1721678196.112345,-44,102,1001,5758,-17343,-1287
1721678196.121595,-193,14,1007,6423,-16573,-954
1721678196.130845,-266,-30,1027,6572,-14000,5731
1721678196.140095,-185,22,1003,5635,-9389,15522
1721678196.149345,46,93,1001,4060,-4174,19180
1721678196.158600,212,202,1000,2905,-368,22365,-10058,31707,75097,84533,33357
1721678196.167850,531,94,997,3072,43,22417
1721678196.177100,376,160,993,3728,-2695,10692
1721678196.186350,72,201,995,3570,-9529,11287
1721678196.195600,213,139,994,4314,-12793,10456
1721678196.204850,160,165,1021,5565,-13642,3578
1721678196.214100,86,158,1058,6344,-15917,-2774
1721678196.223350,35,112,1070,6852,-17072,-7858
1721678196.232666,-57,68,1061,7237,-16897,-8680,-10418,31512,74987,84531,33359, 158217.100, 40.0101894,-105.2442226, 1584.869,1606.197, 4.835,4.974
1721678196.241916,-238,19,1054,7079,-16074,-11314
1721678196.251166,-255,87,1048,6528,-13869,-11515
1721678196.260416,-188,26,1044,5898,-9197,-6992
1721678196.269666,-152,4,1050,5723,-4183,-8444
1721678196.278916,-106,29,1049,4953,61,-7639
1721678196.288166,-42,51,1047,3990,3290,-1672
1721678196.297416,-29,14,1044,3299,5845,4725
1721678196.306672,-13,24,1041,2757,7647,8881,,,,84528,33363, 158217.200, 40.0101898,-105.2442229, 1584.828,1606.156, 4.826,4.960
1721678196.315922,-8,91,1037,2048,8925,16275
1721678196.325172,63,188,1035,1540,10246,24360
1721678196.334422,200,210,1026,1794,11191,22758
1721678196.343672,288,226,1018,3212,11235,12635
1721678196.352922,250,239,1032,5110,9126,5810
1721678196.362172,227,209,1046,7053,5521,315
1721678196.371422,197,175,1049,9004,2353,-5373
1721678196.380677,127,144,1057,11034,-552,-5242,-10296,30786,75457
1721678196.389927,33,137,1053,12705,-2827,-4174
1721678196.399177,-26,125,1037,13904,-3649,-3772
1721678196.408427,-54,83,1020,14849,-3220,-4367
1721678196.417677,-29,21,1007,15698,-2048,-5513
1721678196.426927,65,-15,1000,16057,-210,-2975
1721678196.436177,170,-60,995,15768,1312,1995
1721678196.445427,238,-158,997,14840,1128,4243
1721678196.454682,246,-243,1006,12784,-525,1758,-10528,30004,75860,84525,33370, 158217.300, 40.0101913,-105.2442232, 1584.845,1606.173, 4.809,4.941
1721678196.463932,278,-231,1004,9205,-2949,-237
1721678196.473182,276,-164,999,4305,-5697,1662
1721678196.482432,284,-34,1004,-350,-9118,-359
1721678196.491682,297,68,1002,-3823,-12320,-1689
1721678196.500932,287,97,1003,-5337,-15785,-2520
1721678196.510182,173,176,1010,-5346,-19530,-5942
1721678196.519432,-7,385,1016,-4681,-22803,-5732
1721678196.528687,-38,108,1016,-1513,-23730,-657,-12048,29693,75122,84532,33385, 158217.400, 40.0101919,-105.2442235, 1584.794,1606.123, 4.788,4.917
1721678196.537937,-61,-83,1032,2354,-22558,-473
1721678196.547187,-139,-68,1016,2503,-20834,1758
1721678196.556437,-157,-92,1029,884,-18577,13020
1721678196.565687,-213,-44,1043,-1076,-15208,21420
1721678196.574937,-253,39,1054,-3325,-11314,33985
1721678196.584187,-242,28,1056,-5048,-6729,40678
1721678196.593437,-184,5,1050,-6081,-1952,39383
1721678196.602692,-67,75,1045,-7245,2703,34116,-12658,29364,75000,84537,33387, 158217.500, 40.0101947,-105.2442239, 1584.978,1606.306, 4.760,4.886
1721678196.611942,37,151,1024,-8286,6046,27781
1721678196.621192,169,203,1005,-8461,7551,18331
1721678196.630442,231,200,997,-7192,7113,8776
1721678196.639692,363,197,986,-5302,5320,-1138
1721678196.648942,339,197,977,-3027,1785,-5845
1721678196.658192,266,151,963,-385,-2800,-3010
1721678196.667442,205,135,963,1628,-7447,-5417
1721678196.676697,75,120,959,3159,-10728,-6038
1721678196.685947,-67,77,956,4218,-12889,-6624
1721678196.695197,-139,43,964,5032,-13248,-7595
1721678196.704447,-155,-8,975,5320,-11620,-8068
1721678196.713697,-116,-73,988,4962,-9074,-10282
1721678196.722947,-33,-124,1000,3877,-6108,-8059
1721678196.732197,48,-127,1009,1680,-3597,-4734
1721678196.741447,43,-143,1011,-1058,-2380,-1567
1721678196.750702,95,-116,1026,-3893,-2354,-228,-13146,29357,74731,84530,33383, 158217.600, 40.0101973,-105.2442246, 1585.198,1606.526, 4.731,4.852
1721678196.759952,122,-5,1016,-7035,-2328,2362
1721678196.769202,154,101,1010,-9633,-3264,7551
1721678196.778452,48,139,1010,-10412,-4647,11760
1721678196.787702,-85,105,1016,-9493,-6134,17220
1721678196.796952,-159,105,1037,-8522,-6038,20973
1721678196.806202,-209,132,1038,-8207,-4148,23301
1721678196.815452,-192,190,1028,-8461,-1033,21035
1721678196.824707,-123,202,1027,-8251,2406,15531,-13781,29254,74450,84528,33394, 158217.700, 40.0101985,-105.2442250, 1585.188,1606.516, 4.712,4.836
1721678196.833957,-19,200,1019,-6921,5643,8671
1721678196.843207,70,143,1008,-5346,8111,665
1721678196.852457,185,77,1011,-3762,8592,-9844
1721678196.861707,173,52,1019,-2887,7857,-9774
1721678196.870957,0,36,1017,-2607,5118,-7840
1721678196.880207,22,88,1024,-2800,3613,-7613
1721678196.889457,-53,119,1025,-2957,3780,-6012
1721678196.898835,-134,159,1008,-2546,3657,-6633,-13293,29522,74554,84524,33396, 158217.800, 40.0102005,-105.2442252, 1585.345,1606.673, 4.694,4.820
1721678196.908085,-167,146,993,-1566,4768,-4227
1721678196.917335,-198,118,986,-17,6851,-5145
1721678196.926585,-113,69,980,1453,9738,-4025
1721678196.935835,47,-14,975,2573,13186,-3439
1721678196.945085,207,1,966,2205,14971,-7552
1721678196.954335,300,55,974,832,14568,-7088
1721678196.963585,355,108,998,-253,11926,-6064
1721678196.972840,316,95,1013,-341,7945,-5959,-12689,29571,74877
1721678196.982090,143,78,1034,-201,3220,-10107
1721678196.991340,-53,58,1049,-288,-307,-16529
1721678197.000590,-204,8,1062,-568,-1304,-21359
1721678197.009840,-174,9,1066,-113,700,-14604
1721678197.019090,-152,-7,1062,-621,4375,6011
1721678197.028340,-107,2,1073,-1793,7560,5092
1721678197.037590,73,113,1070,-3290,10596,743
1721678197.046875,240,269,1070,-4558,13002,271,-12475,29223,75085,84520,33396, 158218.000, 40.0102028,-105.2442261, 1585.449,1606.777, 4.660,4.791
1721678197.056125,404,364,1078,-3561,12320,-368
1721678197.065375,328,339,1094,-192,8933,166
1721678197.074625,144,260,1098,4095,3482,-114
1721678197.083875,33,130,1087,7674,-517,-972
1721678197.093125,-23,3,1067,9940,-1952,350
1721678197.102375,-25,-59,1047,10395,-1978,3018
1721678197.111625,-17,-50,1025,9179,-1243,4865
1721678197.120881,-25,-20,1011,7307,-499,4445,,,,84524,33405, 158218.000, 40.0102028,-105.2442261, 1585.449,1606.777, 4.660,4.791
1721678197.130131,-36,0,1000,5662,376,3360
1721678197.139381,1,20,992,4550,1391,2266
1721678197.148631,52,66,991,3798,2485,1951
1721678197.157881,158,74,986,3500,3036,2800
1721678197.167131,210,101,981,3579,2607,1601
1721678197.176381,191,89,972,3754,367,595
1721678197.185631,140,30,961,3903,-2293,-2258
1721678197.194886,86,-49,954,3833,-4524,-1733,-12634,28704,75244,84530,33414, 158218.100, 40.0102039,-105.2442268, 1585.455,1606.783, 4.650,4.783
1721678197.204136,21,-141,937,3028,-5950,-342
1721678197.213386,-38,-210,933,1077,-6493,-534
1721678197.222636,-14,-134,927,-2660,-5679,-735
1721678197.231886,81,74,922,-6807,-4008,813
1721678197.241136,198,373,918,-9406,-2748,1566
1721678197.250386,245,448,942,-8548,-3028,2126
1721678197.259636,88,279,955,-4313,-5180,2502
1721678197.268891,-145,123,1031,263,-7455,-4279,-13092,28735,74963
1721678197.278141,-142,6,1039,2958,-6738,323
1721678197.287391,-203,-170,1056,3142,-3334,2948
1721678197.296641,-168,-111,1060,1024,455,1531
1721678197.305891,-27,-33,1049,-2712,4838,7192
1721678197.315141,71,-10,1046,-5416,8155,6562
1721678197.324391,181,54,1041,-7043,9625,6615
1721678197.333641,237,198,1032,-8015,9353,10902
1721678197.342896,208,237,1029,-7656,7262,10955,-13000,28796,75036,84526,33414, 158218.200, 40.0102051,-105.2442272, 1585.576,1606.904, 4.641,4.775
1721678197.352146,165,220,1029,-5521,4532,5381
1721678197.361396,162,177,1027,-2922,2231,2528
1721678197.370646,147,107,1018,-770,332,577
1721678197.379896,142,84,1010,525,-1593,-2888
1721678197.389146,88,36,1005,989,-3220,-3317
1721678197.398396,-1,41,1006,1077,-4577,-4209
1721678197.407646,-193,17,1016,805,-5215,-5355
1721678197.416901,-221,-10,996,805,-3728,-6187,-13012,28808,75024,84528,33425, 158218.300, 40.0102056,-105.2442276, 1585.523,1606.851, 4.635,4.769
1721678197.426151,-107,-78,967,403,306,-4043
1721678197.435401,153,23,946,-971,3613,-2240
1721678197.444651,177,48,956,-2721,4681,1697
1721678197.453901,232,75,975,-3290,3255,-3807
1721678197.463151,154,101,992,-3587,1330,-3343
1721678197.472401,131,332,1015,-3762,-1103,-3798
1721678197.481651,75,534,1041,-3123,-2643,-7902
1721678197.490906,2,233,1058,1112,-3842,-20965,-12640,28900,75183,,, 158218.400, 40.0102055,-105.2442274, 1585.462,1606.790, 4.629,4.762
1721678197.500156,-40,6,1058,6370,-3457,-35508
1721678197.509406,-141,-194,1047,8418,-3693,-35377
1721678197.518656,-179,-68,1046,6440,-1838,-23188
1721678197.527906,-57,-33,1026,3588,1688,-3229
1721678197.537156,5,53,1034,1724,4900,3298
1721678197.546406,49,43,1037,44,6650,1146
1721678197.555656,139,92,1026,-385,7472,-674
1721678197.564972,142,149,1026,-708,7288,315,,,,84527,33429
1721678197.574222,117,111,1032,-306,5871,-5005
1721678197.583472,149,42,1049,1155,3972,-8103
1721678197.592722,140,-100,1043,1680,3193,-9634
1721678197.601972,175,-193,1040,910,1776,-7674
1721678197.611222,135,-56,1045,-1916,8,-4200
1721678197.620472,55,75,1037,-5320,-1917,-1007
1721678197.629722,-28,155,1051,-6702,-3045,-1908
1721678197.638977,-88,204,1054,-6037,-2949,-4017,-12530,29357,75189,84525,33431, 158218.500, 40.0102055,-105.2442272, 1585.418,1606.746, 4.624,4.756
1721678197.648227,-71,228,1046,-4252,-1549,-4577
1721678197.657477,5,173,1037,-1758,568,-4025
1721678197.666727,54,122,1033,622,2030,-3798
1721678197.675977,119,76,1036,2354,2380,-3308
1721678197.685227,-108,60,1060,3369,1951,-2599
1721678197.694477,185,74,1035,3605,1610,183
1721678197.703727,176,-24,1026,3308,2800,2581
1721678197.712983,98,-2,1034,2678,402,-447,-12518,29071,75231,84526,33444, 158218.600, 40.0102058,-105.2442272, 1585.345,1606.673, 4.620,4.750
1721678197.722233,49,104,1029,1322,-1304,2458
1721678197.731483,-18,123,1027,525,-1978,2695
1721678197.740733,17,77,1017,1042,-1882,-1418
1721678197.749983,76,49,1008,1899,-1348,-3824
1721678197.759233,164,58,994,2240,-1129,-5635
1721678197.768483,217,-20,991,2223,-1847,-6755
1721678197.777733,143,-36,1013,2057,-3842,-6318
1721678197.786988,33,49,1016,648,-6134,-4174,-12725,29095,75183,,, 158218.700, 40.0102060,-105.2442276, 1585.347,1606.675, 4.612,4.741
1721678197.796238,-83,128,1004,-1172,-7140,-350
1721678197.805488,-120,150,989,-1732,-6353,35
1721678197.814738,-140,129,985,-1076,-4078,-140
1721678197.823988,-112,97,990,-157,-1269,113
1721678197.833238,-60,120,1001,473,1680,-263
1721678197.842488,20,150,1015,849,4165,-464
1721678197.851738,81,120,1031,1610,5792,-1042
1721678197.860993,142,62,1046,2678,6326,-1855,-12707,28656,75305,84523,33449
1721678197.870243,178,20,1047,3124,5810,105
1721678197.879493,173,35,1044,2695,4252,3185
1721678197.888743,118,66,1025,1759,2126,6361
1721678197.897993,112,111,1003,989,236,7507
1721678197.907243,89,124,1001,727,-1015,4252
1721678197.916493,53,33,1007,1418,-2144,1137
1721678197.925743,29,-38,1011,2083,-2870,612
1721678197.934998,60,-106,1012,1575,-2923,4112,,,,84524,33442, 158218.800, 40.0102056,-105.2442275, 1585.271,1606.599, 4.604,4.732
1721678197.944248,93,-76,1015,105,-2739,10482
1721678197.953498,113,8,1023,-2047,-3028,17132
1721678197.962748,151,58,1020,-3841,-3745,16432
1721678197.971998,108,95,1032,-4795,-4822,9616
1721678197.981248,78,145,1033,-4882,-6292,385
1721678197.990498,85,174,1032,-4252,-7035,-3054
1721678197.999748,94,197,1027,-3080,-7709,-5653
1721678198.009003,115,168,1013,-1303,-8488,-8602,-13232,28485,75079,84530,33455, 158218.900, 40.0102060,-105.2442274, 1585.351,1606.679, 4.596,4.721
1721678198.018253,121,147,1007,490,-9503,-13720
1721678198.027503,52,99,1011,1960,-10745,-17413
1721678198.036753,-9,34,1014,3010,-11585,-17457
1721678198.046003,-75,-16,1019,3334,-11305,-15348
1721678198.055253,-119,-21,1036,3002,-10439,-10395
1721678198.064503,-87,-29,1036,1750,-8610,-3500
1721678198.073753,45,-13,1037,315,-6082,2668
1721678198.083008,127,-6,1034,-1137,-4795,3990,-13757,28656,74743,,, 158219.000, 40.0102054,-105.2442268, 1585.352,1606.680, 4.587,4.711
1721678198.092258,156,-24,1043,-3115,-3588,2415
1721678198.101508,131,-11,1031,-4235,-6143,831
1721678198.110758,-67,2,1054,-5127,-9722,1470
1721678198.120008,-295,153,1059,-6361,-9993,1688
1721678198.129258,-387,345,1077,-6982,-8033,1347
1721678198.138508,-255,335,1077,-5355,-3229,-4682
1721678198.147758,-30,30,1037,-1067,3115,-15882
1721678198.157013,80,-69,1016,2109,6492,-17684,-13635,28820,74688,84525,33457
1721678198.166263,104,-13,986,1654,6947,-10772
1721678198.175513,53,98,978,9,6168,-1164
1721678198.184763,38,108,972,-708,5241,262
1721678198.194013,96,65,972,-201,5127,1653
1721678198.203263,90,51,979,245,4856,3150
1721678198.212513,131,58,986,280,3780,5267
1721678198.221763,119,49,997,245,2817,7087
1721678198.231080,138,82,1004,-87,1461,6956,-13842,28649,74639,84534,33462, 158219.100, 40.0102055,-105.2442266, 1585.294,1606.622, 4.580,4.702
1721678198.240330,146,102,1004,-533,332,7411
1721678198.249580,96,92,1015,-656,-1234,5083
1721678198.258830,52,82,1017,-490,-2590,2703
1721678198.268080,59,82,1021,-542,-3194,358
1721678198.277330,41,52,1013,-647,-3667,-3019
1721678198.286580,45,30,1020,-813,-3465,-4227
1721678198.295830,18,38,1036,-918,-3815,-3107
1721678198.305085,-75,53,1042,-1697,-2818,-1995,-13629,28869,74700,84526,33466, 158219.200, 40.0102063,-105.2442268, 1585.414,1606.742, 4.573,4.694
1721678198.314335,-130,82,1052,-2143,-2135,-1217
1721678198.323585,-167,60,1049,-2441,-140,-2625
1721678198.332835,-127,57,1043,-2607,2555,-6125
1721678198.342085,-78,47,1030,-2765,5600,-6720
1721678198.351335,-45,96,1040,-3325,8575,-6939
1721678198.360585,-26,192,1029,-3263,9415,-3142
1721678198.369835,46,217,1010,-2590,10902,778
1721678198.379090,114,158,987,-691,11672,-3203
1721678198.388340,169,65,972,1575,11016,-9450
1721678198.397590,225,52,950,2862,9590,-10168
1721678198.406840,203,-1,960,3089,7341,-11227
1721678198.416090,120,57,969,2897,4086,-12215
1721678198.425340,47,157,965,2030,1373,-7718
1721678198.434590,-29,173,982,1742,437,-11209
1721678198.443840,-88,187,1018,2704,918,-17605
1721678198.453095,-95,96,1014,3894,3080,-19408,-12908,29058,75030,84528,33475, 158219.300, 40.0102069,-105.2442269, 1585.461,1606.789, 4.566,4.685
1721678198.462345,-62,-14,1039,5198,5862,-14604
1721678198.471595,46,-98,1062,6064,7875,-6493
1721678198.480845,118,-95,1068,4664,9948,1837
1721678198.490095,165,36,1054,1654,9301,2117
1721678198.499345,242,115,1030,-717,8312,5853
1721678198.508595,257,82,1025,-1058,6361,6711
1721678198.517845,267,81,1021,-647,3325,-1934
1721678198.527131,210,122,1031,-227,-105,-700,-12823,28955,75158,84530,33484, 158219.400, 40.0102063,-105.2442262, 1585.412,1606.740, 4.563,4.678
1721678198.536381,142,101,1033,298,-3352,2485
1721678198.545631,58,26,1057,1295,-5714,1846
1721678198.554881,-2,18,1054,1654,-6904,-3990
1721678198.564131,-41,28,1045,849,-7245,-7770
1721678198.573381,-57,8,1041,175,-6318,-5154
1721678198.582631,-21,-27,1033,-463,-5128,-4638
1721678198.591881,38,-71,1025,-1461,-3868,-6458
1721678198.601136,111,-87,1021,-2966,-2967,-4235,-13128,29278,74877,84530,33484, 158219.500, 40.0102058,-105.2442263, 1585.405,1606.733, 4.561,4.675
1721678198.610386,148,-50,1006,-4996,-3133,-62
1721678198.619636,126,4,1005,-7070,-4410,131
1721678198.628886,86,56,1005,-8662,-6143,-1033
1721678198.638136,32,101,1005,-9476,-7377,-2424
1721678198.647386,-29,126,1005,-9520,-8120,-3640
1721678198.656636,-70,140,1007,-8890,-7989,-4480
1721678198.665886,-118,155,1016,-7980,-6922,-5119
1721678198.675141,-133,152,1020,-7000,-5067,-8392,-13006,29827,74645
1721678198.684391,-107,153,1020,-6037,-2424,-11209
1721678198.693641,-73,148,1015,-5005,271,-9372
1721678198.702891,-64,113,1013,-3867,2555,-4262
1721678198.712141,-73,54,1012,-2931,4357,-2564
1721678198.721391,-84,0,1005,-2791,6125,-4104
1721678198.730641,-95,-11,999,-3561,8006,-5714
1721678198.739891,-86,-7,991,-5066,10053,-6825
1721678198.749146,-44,-19,988,-6580,12328,-7814,-12127,30407,74694,84527,33482, 158219.600, 40.0102063,-105.2442263, 1585.472,1606.800, 4.559,4.671
1721678198.758396,52,-16,988,-8058,14323,-7280
1721678198.767646,147,42,994,-9616,15627,-3614
1721678198.776896,184,121,996,-11173,15435,-1155
1721678198.786146,181,158,998,-11786,13982,-1287
1721678198.795396,240,122,1003,-11567,12285,0
1721678198.804646,287,172,1006,-10745,10368,1207
1721678198.813896,304,178,1009,-10062,7525,1785
1721678198.823151,278,120,1011,-8846,3788,3631,,,,84524,33493, 158219.700, 40.0102061,-105.2442262, 1585.449,1606.777, 4.558,4.668
1721678198.832401,239,47,1012,-7936,-70,3115
1721678198.841651,196,30,1018,-7813,-3588,1627
1721678198.850901,143,57,1019,-8566,-6449,105
1721678198.860151,94,99,1016,-9555,-8698,-1899
1721678198.869401,45,154,1014,-10263,-9993,-3404
1721678198.878651,11,218,1008,-10150,-10570,-4218
1721678198.887901,-23,239,1010,-9283,-10518,-5697
1721678198.897217,-8,222,1009,-7603,-9730,-5487,-12512,31060,74194,,, 158219.800, 40.0102061,-105.2442263, 1585.417,1606.745, 4.558,4.667
1721678198.906467,28,164,1007,-5591,-8707,-4192
1721678198.915717,36,124,1014,-3841,-7875,-2914
1721678198.924967,23,123,1025,-2730,-7499,1102
1721678198.934217,3,125,1025,-2135,-7184,8137
1721678198.943467,-43,135,1032,-1802,-6677,12416
1721678198.952717,-106,116,1031,-1723,-5942,12171
1721678198.961967,-102,81,1030,-1575,-4594,8531
1721678198.971222,-59,71,1019,-1872,-2302,6090,-13201,30938,73876,84534,33506
1721678198.980472,15,72,1008,-2318,-219,6343
1721678198.989722,115,97,999,-2913,1023,7761
1721678198.998972,147,98,1000,-3377,1050,8303
1721678199.008222,149,117,1010,-3605,-254,9773
1721678199.017472,119,142,1009,-3727,-1995,13212
1721678199.026722,85,148,1019,-3683,-3859,16275
1721678199.035972,77,199,1020,-3508,-5189,16091
1721678199.045227,74,254,1017,-3123,-6020,11672,-13830,30895,73498,84523,33501, 158219.900, 40.0102065,-105.2442261, 1585.425,1606.753, 4.554,4.658
1721678199.054477,59,258,1016,-1942,-6957,4865
1721678199.063727,46,218,1020,-96,-7709,-1462
1721678199.072977,55,148,1023,1540,-8085,-10719
1721678199.082227,73,136,1027,3072,-8322,-10544
1721678199.091477,101,178,1031,3929,-8654,-420
1721678199.100727,132,212,1033,4410,-9162,1960
1721678199.109977,158,234,1043,5530,-10247,542
1721678199.119233,125,198,1047,7167,-11865,1391,-14898,30285,73321,84524,33512, 158220.000, 40.0102062,-105.2442260, 1585.391,1606.719, 4.550,4.651
1721678199.128483,87,165,1045,8829,-13764,2310
1721678199.137733,49,126,1042,9940,-15252,2686
1721678199.146983,11,88,1027,10632,-16258,2248
1721678199.156233,-23,48,1024,10719,-16617,997
1721678199.165483,-47,20,1021,10369,-16599,-473
1721678199.174733,47,22,1014,9450,-15943,-2083
1721678199.183983,26,-21,1019,8190,-15479,-4918
1721678199.193238,-16,-51,1017,6615,-16319,-15418,,,,84528,33514, 158220.100, 40.0102060,-105.2442260, 1585.438,1606.766, 4.542,4.636
1721678199.202488,-60,-45,1005,4760,-16783,-16074
1721678199.211738,-129,-33,1001,2634,-16477,-10387
1721678199.220988,-112,-5,990,490,-15365,-6222
1721678199.230238,-99,7,984,-1312,-13484,-1812
1721678199.239488,-86,39,982,-2948,-11813,-2127
1721678199.248738,-66,80,983,-4270,-10422,-560
1721678199.257988,-52,114,988,-4987,-9232,2196
1721678199.267243,-40,132,995,-5355,-8225,1968,-15734,30322,72735
1721678199.276493,6,152,1001,-5363,-7429,1295
1721678199.285743,45,166,999,-5250,-6904,1872
1721678199.294993,42,154,996,-4882,-7184,1023
1721678199.304243,44,155,997,-4226,-7867,1881
1721678199.313493,54,155,999,-3648,-8453,3736
1721678199.322743,-9,258,1007,-3167,-9179,4182
1721678199.331993,-112,266,1006,-2318,-10080,6151
1721678199.341248,-65,331,1012,342,-9634,19337,-16711,30090,72235,84526,33523, 158220.200, 40.0102064,-105.2442261, 1585.450,1606.778, 4.537,4.627
1721678199.350498,-114,304,1009,2958,-8068,29662
1721678199.359748,-193,257,1021,5557,-7350,13440
1721678199.368998,-273,151,1022,8077,-5819,2861
1721678199.378248,-303,77,1007,9967,-2870,516
1721678199.387498,-284,43,997,10107,1277,-1742
1721678199.396748,-159,76,974,9240,5600,-2897
1721678199.405998,-33,91,957,8278,9380,-3509
1721678199.415253,41,17,949,7744,11007,-8777,-16564,30023,72656,84528,33525, 158220.300, 40.0102061,-105.2442262, 1585.520,1606.848, 4.535,4.623
1721678199.424503,85,-129,945,7552,10701,-9380
1721678199.433753,105,-180,942,6178,9756,-2503
1721678199.443003,171,-144,958,2914,7892,7621
1721678199.452253,138,-45,992,-1111,5425,10333
1721678199.461503,111,137,1021,-4742,2511,7822
1721678199.470753,-1,195,1040,-6860,148,7778
1721678199.480003,-121,204,1043,-6903,-1637,7315
1721678199.489258,-175,256,1038,-5783,-1619,12232,-17120,29339,72625,,, 158220.400, 40.0102065,-105.2442262, 1585.590,1606.918, 4.534,4.619
1721678199.498508,-194,232,1034,-3990,-53,21883
1721678199.507758,-207,166,1041,-1531,1916,27877
1721678199.517008,-165,112,1055,447,4252,28901
1721678199.526258,-113,67,1056,1103,6746,26836
1721678199.535508,-55,72,1048,639,8750,23143
1721678199.544758,-51,73,1033,-341,9747,20072
1721678199.554008,-10,56,1029,-1076,10351,16423
1721678199.563324,12,55,1028,-1522,10640,14332,-17089,28863,72747,84525,33521
1721678199.572574,13,67,1034,-2126,10342,13597
1721678199.581824,19,66,1052,-2782,9581,11252
1721678199.591074,33,47,1040,-3193,8898,8793
1721678199.600324,54,57,1048,-3640,8198,8540
1721678199.609574,41,31,1053,-4287,7131,6273
1721678199.618824,23,57,1067,-4768,5530,4943
1721678199.628074,9,161,1067,-5731,4208,10570
1721678199.637330,-21,222,1068,-6055,3246,16931,,,,84535,33528, 158220.500, 40.0102068,-105.2442258, 1585.571,1606.899, 4.533,4.615
1721678199.646580,-40,266,1062,-5197,2616,19591
1721678199.655830,-17,264,1056,-3360,2485,22478
1721678199.665080,7,198,1045,-866,2581,25646
1721678199.674330,14,130,1037,1602,2362,27020
1721678199.683580,35,84,1019,3168,1662,24981
1721678199.692830,29,53,1020,3623,673,18060
1721678199.702080,24,86,1016,3710,-455,15233
1721678199.711335,14,118,1011,3168,-1453,15636,-17852,27905,72778,84529,33539, 158220.600, 40.0102067,-105.2442255, 1585.626,1606.954, 4.533,4.611
1721678199.720585,-59,129,1016,3019,-2319,17386
1721678199.729835,-130,155,1007,3614,-2599,23633
1721678199.739085,-125,148,1013,4664,-1619,29172
1721678199.748335,-103,106,999,5819,227,27816
1721678199.757585,-49,24,1003,6370,2187,20912
1721678199.766835,2,-29,1006,6038,3438,12705
1721678199.776085,43,-25,1008,4725,4086,10176
1721678199.785370,6,21,1016,2459,3788,11025,-18316,26684,72784,,, 158220.700, 40.0102051,-105.2442246, 1585.627,1606.955, 4.527,4.605
1721678199.794620,-75,104,1009,280,2852,9187
1721678199.803870,-138,165,1009,-787,2563,7175
1721678199.813120,-121,210,1006,-516,3841,8058
1721678199.822370,-63,261,997,578,5477,5845
1721678199.831620,-40,217,996,2293,6798,367
1721678199.840870,-42,173,998,4332,7507,-7490
1721678199.850120,-40,213,989,5670,7708,-9792
1721678199.859375,-21,122,987,6580,7918,-8470,-17913,26440,73211,84531,33539
1721678199.868625,-81,127,1015,7709,7945,-12740
1721678199.877875,-94,111,1021,8427,8260,-8855
1721678199.887125,36,89,1013,8855,9642,1487
1721678199.896375,70,76,1017,8602,10333,4725
1721678199.905625,34,150,1048,8077,9441,-4647
1721678199.914875,-84,144,1052,8225,8400,-8610
1721678199.924125,-91,50,1052,9004,7848,-11892
1721678199.933381,-52,-35,1042,9573,8513,-10868,-17144,26287,73876,84527,33539, 158220.800, 40.0102035,-105.2442233, 1585.505,1606.833, 4.520,4.598
1721678199.942631,-11,-62,1042,8532,9178,-10667
1721678199.951881,28,4,1037,6344,9555,-13047
1721678199.961131,93,34,1042,4104,9476,-16197
1721678199.970381,93,222,1069,2800,9056,-19102
1721678199.979631,52,201,1064,3439,7813,-12583
1721678199.988881,-45,171,1038,5679,6632,-1680
1721678199.998131,-100,202,1016,7175,6107,-1715
1721678200.007386,-25,165,1002,9205,6658,-2617,-16784,25659,74316,84527,33550, 158220.900, 40.0102029,-105.2442224, 1585.559,1606.887, 4.513,4.591
1721678200.016636,-10,98,993,11708,7402,-3614
1721678200.025886,-39,-34,988,13370,7577,-4480
1721678200.035136,-11,-191,968,13650,7857,-3185
1721678200.044386,56,-177,961,11638,8295,70
1721678200.053636,62,-136,944,7700,8181,7122
1721678200.062886,61,-60,956,3273,7070,6755
1721678200.072136,97,50,970,-507,6326,166
1721678200.081391,92,137,974,-2441,5818,-1164,,,,,, 158221.000, 40.0102014,-105.2442214, 1585.620,1606.948, 4.504,4.586
1721678200.090641,73,195,1003,-2502,4935,-1908
1721678200.099891,95,206,1005,-1216,3832,-2039
1721678200.109141,81,229,1002,648,2948,-167
1721678200.118391,34,171,993,2424,2283,3027
1721678200.127641,33,153,987,4927,1120,7621
1721678200.136891,25,62,985,6152,735,12582
1721678200.146141,71,57,996,6834,516,16563
1721678200.155518,-20,100,1019,6423,-298,20545,-16998,25042,74493,84529,33558
1721678200.164768,-59,53,1028,5539,-989,17360
1721678200.174018,-54,14,1060,5198,122,15120
1721678200.183268,-44,85,1066,4375,1233,16100
1721678200.192518,-47,68,1039,2914,2073,10097
1721678200.201768,-15,54,1048,2634,3360,2887
1721678200.211018,-14,43,1032,2302,4235,-2818
1721678200.220268,33,39,1018,1969,4261,-6099
1721678200.229523,53,47,1004,1987,4576,-6239,-16912,24609,74719,84526,33556, 158221.100, 40.0102027,-105.2442219, 1585.652,1606.980, 4.493,4.581
1721678200.238773,55,53,996,1619,4095,-6029
1721678200.248023,42,84,1015,1313,3412,-4253
1721678200.257273,-28,78,1010,1532,2686,-1479
1721678200.266523,30,101,1004,1768,2283,-578
1721678200.275773,35,37,1014,2109,1986,700
1721678200.285023,24,38,1027,2582,665,2240
1721678200.294273,29,85,1037,2345,-788,4208
1721678200.303528,37,91,1034,2284,-1785,5670,-17218,24365,74859,84531,33558, 158221.200, 40.0102059,-105.2442233, 1585.752,1607.080, 4.480,4.575
1721678200.312778,58,108,1030,2765,-2722,2345
1721678200.322028,49,107,1033,3273,-3605,105
1721678200.331278,42,123,1027,4017,-4813,-1768
1721678200.340528,35,136,1038,4673,-5933,-2958
1721678200.349778,41,114,1028,5644,-6563,-4428
1721678200.359028,72,70,1025,6598,-6930,-3789
1721678200.368278,-36,144,1040,7289,-7797,612
1721678200.377533,-74,133,1067,7482,-8418,3850,-17730,23632,74603
1721678200.386783,-51,-77,1031,8427,-7368,-2398
1721678200.396033,-3,-117,1018,8365,-6484,-4612
1721678200.405283,-49,-60,1038,5802,-6195,1583
1721678200.414533,-64,-11,1036,3063,-5837,5083
1721678200.423783,-80,18,1036,1217,-4542,5538
1721678200.433033,-48,32,1033,-428,-2949,3990
1721678200.442283,3,43,1029,-1408,-1365,1732
1721678200.451538,35,59,1032,-1645,-543,673,,,,84527,33558, 158221.300, 40.0102069,-105.2442241, 1585.788,1607.116, 4.464,4.568
1721678200.460788,20,45,1043,-1408,-937,2362
1721678200.470038,0,43,1053,-1111,-1707,7043
1721678200.479288,41,37,1048,-1198,-2109,11138
1721678200.488538,-15,19,1039,-1347,-2608,14113
1721678200.497788,-34,22,1048,-1575,-3343,17447
1721678200.507038,-25,39,1048,-2056,-2967,17473
1721678200.516288,27,73,1044,-2327,-2223,16870
1721678200.525544,18,74,1036,-2345,-1829,14840,-18249,23150,74548,84538,33571, 158221.400, 40.0102066,-105.2442236, 1585.768,1607.096, 4.448,4.561
1721678200.534794,24,94,1020,-1863,-2398,11690
1721678200.544044,48,67,1028,-1286,-2555,6877
1721678200.553294,61,54,1034,-236,-2914,5547
1721678200.562544,28,40,1037,394,-3938,6256
1721678200.571794,7,85,1053,508,-4830,8146
1721678200.581044,-35,116,1058,639,-4909,12670
1721678200.590294,-85,95,1068,1619,-4332,11340
1721678200.599549,-171,85,1087,2940,-3378,9126,-18774,22265,74346,84530,33576, 158221.500, 40.0102069,-105.2442237, 1585.795,1607.123, 4.430,4.550
1721678200.608799,-124,-26,1065,3334,-2415,1890
1721678200.618049,-108,5,1056,3168,-735,-3763
1721678200.627299,-78,87,1038,2617,1155,-534
1721678200.636549,-15,88,1018,2302,2747,-385
1721678200.645799,13,62,1006,2879,3657,411
1721678200.655049,3,103,994,3395,3473,-1182
1721678200.664299,13,161,984,4157,2826,-2275
1721678200.673554,28,27,994,5670,2458,-4638,-18676,21881,74584
1721678200.682804,58,-12,989,7000,2170,-5504
1721678200.692054,33,-40,1006,6580,1225,-2835
1721678200.701304,9,-35,1022,5382,341,-3124
1721678200.710554,-12,-12,1033,3894,-114,-2214
1721678200.719804,-30,0,1035,2179,-210,-1523
1721678200.729054,-39,12,1035,814,-114,-1759
1721678200.738304,-5,29,1035,-35,253,-3080
1721678200.747559,41,114,1031,-665,796,-5469,-18682,21490,74511,84536,33582, 158221.600, 40.0102067,-105.2442233, 1585.739,1607.067, 4.412,4.539
1721678200.756809,-81,116,1004,-691,113,-10264
1721678200.766059,-51,64,1000,639,288,-7788
1721678200.775309,-20,3,999,2284,1837,936
1721678200.784559,-63,33,1006,2704,2738,2353
1721678200.793809,-52,41,1019,2442,3272,2170
1721678200.803059,25,6,1036,2258,4086,2782
1721678200.812309,-15,19,1010,2170,4462,1478
1721678200.821564,-19,121,996,814,3132,-2905,-18731,21136,74645,84530,33582, 158221.700, 40.0102070,-105.2442234, 1585.772,1607.100, 4.392,4.528
1721678200.830814,47,62,986,1015,3386,-683
1721678200.840064,83,116,977,1943,2336,-1287
1721678200.849314,78,77,969,2424,1050,-2783
1721678200.858564,74,45,969,3719,-438,-4375
1721678200.867814,67,26,972,4498,-1523,-3947
1721678200.877064,57,12,979,4839,-2573,-2695
1721678200.886314,10,11,992,4970,-3387,-1987
1721678200.895630,-101,-19,1005,4760,-4209,-2477,,,,84530,33585, 158221.800, 40.0102070,-105.2442234, 1585.750,1607.078, 4.371,4.513
1721678200.904880,-102,-9,1011,3999,-4384,-4367
1721678200.914130,-55,-18,1015,2932,-2984,-3404
1721678200.923380,-47,-1,1023,2004,-1838,-3282
1721678200.932630,-41,-7,1031,963,-919,-4288
1721678200.941880,-41,14,1043,-87,-44,-4638
1721678200.951130,-19,-1,1045,-1163,796,-5574
1721678200.960380,-42,-19,1049,-1916,1662,-4988
1721678200.969666,-96,22,1054,-3080,2353,-3702,-18798,21130,74627
1721678200.978916,-44,1,1051,-4261,3482,-6589
1721678200.988166,-56,28,1040,-4698,4777,-7744
1721678200.997416,-18,50,1022,-5293,5486,-9739
1721678201.006666,28,58,1001,-5512,6282,-13134
1721678201.015916,44,67,982,-4987,6370,-15042
1721678201.025166,42,69,964,-4366,5853,-16450
1721678201.034416,77,51,959,-3675,5215,-16748
1721678201.043671,95,34,970,-3132,4716,-16652,-18237,21734,74798,84529,33591, 158221.900, 40.0102074,-105.2442235, 1585.726,1607.054, 4.349,4.496
1721678201.052921,62,75,979,-2861,3578,-16538
1721678201.062171,55,94,995,-2266,2126,-15925
1721678201.071421,53,83,1018,-1478,1050,-16512
1721678201.080671,60,49,1044,-385,-97,-18734
1721678201.089921,35,7,1050,490,-1365,-19364
1721678201.099171,4,17,1051,455,-2485,-18113
1721678201.108421,-20,21,1054,105,-3220,-15120
1721678201.117676,-12,16,1052,-245,-3439,-12872,-18280,22070,74835,84518,33593, 158222.000, 40.0102080,-105.2442236, 1585.750,1607.078, 4.330,4.482
1721678201.126926,16,18,1049,-393,-3299,-11550
1721678201.136176,5,0,1048,-463,-3439,-7123
1721678201.145426,-14,-10,1042,-665,-3789,-4104
1721678201.154676,-20,-16,1031,-962,-3815,-2275
1721678201.163926,7,3,1025,-1330,-3658,96
1721678201.173176,11,19,1027,-1662,-3509,2992
1721678201.182426,14,34,1030,-1828,-3737,4838
1721678201.191681,20,38,1035,-1925,-4104,5092,-18707,21960,74450,,, 158222.100, 40.0102079,-105.2442234, 1585.734,1607.063, 4.312,4.470
1721678201.200931,12,44,1036,-1881,-4428,5565
1721678201.210181,-2,48,1040,-1767,-4857,6440
1721678201.219431,-24,44,1047,-1601,-5180,6781
1721678201.228681,-43,45,1051,-1408,-5277,6072
1721678201.237931,10,75,1059,-1295,-4970,3876
1721678201.247181,-28,36,1056,-1312,-4437,-1155
1721678201.256431,3,78,1047,-1251,-4664,-14097
1721678201.265686,36,50,1036,-927,-5093,-10264,-19335,21643,74212,84524,33606
1721678201.274936,29,62,1039,-385,-5653,-8759
1721678201.284186,36,65,1045,-35,-6563,-7062
1721678201.293436,30,65,1048,552,-7193,-2765
1721678201.302686,13,67,1048,1033,-7972,936
1721678201.311936,9,62,1040,1304,-8698,3631
1721678201.321186,-5,57,1035,1733,-8952,6221
1721678201.330436,-29,54,1023,2127,-9284,7061
1721678201.339692,-49,55,1011,2407,-9477,6387,,,,84526,33606, 158222.200, 40.0102083,-105.2442235, 1585.757,1607.085, 4.297,4.462
1721678201.348942,-66,43,1002,2660,-9459,4812
1721678201.358192,-88,28,996,2923,-9074,2502
1721678201.367442,-102,27,990,3063,-8488,-97
1721678201.376692,-101,16,989,3080,-7587,-3037
1721678201.385942,-104,17,992,3238,-6405,-6528
1721678201.395192,-75,23,995,3352,-5390,-10010
1721678201.404442,-41,18,997,3474,-4235,-12487
1721678201.413697,-22,11,1006,3632,-3404,-12688,-19708,21539,73974,84527,33609, 158222.300, 40.0102080,-105.2442232, 1585.736,1607.064, 4.280,4.451
1721678201.422947,-13,2,1011,3623,-3045,-10457
1721678201.432197,-23,0,1017,3422,-2870,-6589
1721678201.441447,-32,-2,1025,3168,-3063,-2625
1721678201.450697,-47,-9,1030,2678,-3115,770
1721678201.459947,-64,-26,1031,2109,-3150,2152
1721678201.469197,-85,-34,1030,1357,-2905,2817
1721678201.478447,-103,-31,1030,420,-2389,2362
1721678201.487702,-108,-19,1027,-586,-1540,1190,-19897,21179,73876,,, 158222.400, 40.0102068,-105.2442231, 1585.684,1607.012, 4.268,4.442
1721678201.496952,-97,-9,1025,-1592,-429,-657
1721678201.506202,-78,6,1019,-2345,595,-2765
1721678201.515452,-62,20,1019,-3045,1566,-3929
1721678201.524702,-46,37,1020,-3325,2310,-4437
1721678201.533952,-27,47,1021,-3167,2870,-4279
1721678201.543202,-26,45,1022,-2826,3036,-3483
1721678201.552452,-37,39,1021,-2450,3106,-2118
1721678201.561707,-37,45,1020,-2170,3150,-1322,-19775,21112,73913,84527,33620
1721678201.570957,-34,59,1018,-1925,3263,-867
1721678201.580207,-29,60,1019,-1697,3430,-1672
1721678201.589457,-20,58,1020,-1163,3535,-2468
1721678201.598707,-10,51,1019,-341,3482,-2345
1721678201.607957,-13,49,1021,377,3360,-1287
1721678201.617207,-21,44,1020,910,3150,-350
1721678201.626457,-33,38,1018,1392,2835,481
1721678201.635712,-51,35,1016,1759,2590,787,-19641,20928,74114,84531,33620, 158222.500, 40.0102074,-105.2442231, 1585.770,1607.098, 4.249,4.420
1721678201.644962,-58,27,1019,2004,2668,-167
1721678201.654212,-64,20,1013,2232,2878,-1680
1721678201.663462,-62,13,1011,2468,3246,-3168
1721678201.672712,-53,15,1009,2564,3692,-4577
1721678201.681962,-39,18,1012,2503,4156,-5732
1721678201.691212,-26,24,1019,2512,4436,-6064
1721678201.700462,-21,26,1026,2582,4480,-5828
1721678201.709717,-16,27,1032,2713,4322,-5102,,,,84529,33617, 158222.600, 40.0102079,-105.2442233, 1585.911,1607.239, 4.235,4.406
1721678201.718967,-15,30,1038,2757,4217,-4087
1721678201.728217,-11,26,1040,2827,3920,-3037
1721678201.737467,-10,17,1039,2958,3473,-2223
1721678201.746717,-13,3,1038,2975,3071,-1260
1721678201.755967,-23,-5,1038,2975,2712,-237
1721678201.765217,-29,-9,1038,2975,2493,595
1721678201.774467,-30,-15,1036,2800,2423,1076
1721678201.783722,-30,-11,1036,2573,2467,840,-19494,20574,74377,,, 158222.700, 40.0102079,-105.2442232, 1585.979,1607.307, 4.219,4.392
1721678201.792972,-25,-10,1032,2249,2493,402
1721678201.802222,-24,-11,1030,2109,2537,96
1721678201.811472,-26,-11,1028,1987,2388,-272
1721678201.820722,-20,-15,1022,1785,2336,-770
1721678201.829972,-13,-14,1018,1680,2266,-840
1721678201.839222,-4,-12,1022,1575,2073,-709
1721678201.848472,-3,-10,1028,1558,1732,-482
1721678201.857727,-8,-7,1032,1357,1268,-184,-19458,20306,74438,84531,33631
1721678201.866977,-16,-1,1033,1059,761,481
1721678201.876227,-14,3,1023,823,323,1225
1721678201.885477,-5,7,1005,683,52,2047
1721678201.894727,-2,10,1001,945,-245,4025
1721678201.903977,-4,-2,1010,1733,-595,7481
1721678201.913227,-36,-22,1031,2967,-998,10456
1721678201.922477,-47,-24,1051,3920,-1164,9913
1721678201.931733,-44,-12,1057,3990,-805,6273,-19671,19799,74371,84524,33635, 158222.800, 40.0102087,-105.2442232, 1586.116,1607.444, 4.204,4.377
1721678201.940983,-40,-13,1053,3150,-272,2100
1721678201.950233,-31,-22,1047,1864,-70,-1663
1721678201.959483,-24,-3,1045,342,-263,-3702
1721678201.968733,-10,9,1035,-1128,-779,-4288
1721678201.977983,-11,13,1031,-2397,-1225,-3947
1721678201.987233,-18,14,1027,-3071,-1505,-2739
1721678201.996483,-25,21,1024,-3298,-1602,-1007
1721678202.005738,-38,25,1020,-3290,-1505,411,-19744,19958,74340,84534,33644, 158222.900, 40.0102086,-105.2442234, 1586.146,1607.474, 4.189,4.361
1721678202.014988,-49,25,1011,-3211,-1243,140
1721678202.024238,-51,25,1007,-2861,-823,-1173
1721678202.033488,-52,30,1006,-2292,-394,-2617
1721678202.042738,-44,27,1008,-1645,113,-3903
1721678202.051988,-35,21,1014,-1102,682,-5312
1721678202.061238,-25,14,1021,-481,1093,-6082
1721678202.070488,-16,13,1020,-140,1216,-6204
1721678202.079773,-10,11,1013,-192,1172,-5233,-19757,19775,74353,,, 158223.000, 40.0102086,-105.2442230, 1586.178,1607.506, 4.172,4.343
1721678202.089023,-15,2,1007,-245,980,-3369
1721678202.098273,-27,3,1005,-26,787,-1313
1721678202.107523,-44,1,1007,140,682,498
1721678202.116773,-61,-5,1005,219,796,1758
1721678202.126023,-71,-9,999,132,1225,2082
1721678202.135273,-66,0,994,53,1688,1505
1721678202.144523,-53,9,996,-218,2240,612
1721678202.153778,-46,15,1000,-297,2782,-490,,,,84536,33646
1721678202.163028,-42,11,1010,-262,3132,-1112
1721678202.172278,-40,14,1016,-245,3412,-1077
1721678202.181528,-38,14,1022,-227,3657,-1147
1721678202.190778,-30,13,1028,-498,3920,-1418
1721678202.200028,-26,8,1035,-568,4103,-1724
1721678202.209278,-22,-2,1039,-831,4042,-2048
1721678202.218528,-20,-7,1038,-1190,4051,-1969
1721678202.227814,-19,-4,1035,-1653,4103,-1689,-19549,19781,74517,84526,33646, 158223.100, 40.0102084,-105.2442227, 1586.172,1607.500, 4.158,4.331
1721678202.237064,-23,-10,1033,-2091,3963,-1085
1721678202.246314,-28,-12,1033,-2248,3841,-254
1721678202.255564,-35,-8,1032,-2546,3963,-158
1721678202.264814,-35,-14,1028,-2765,4182,-779
1721678202.274064,-30,-13,1023,-2896,4270,-1794
1721678202.283314,-19,-8,1018,-3115,4418,-3002
1721678202.292564,-11,-13,1018,-3220,4322,-3588
1721678202.301819,-14,-7,1025,-3106,4051,-3045,-19293,19818,74804,84525,33648, 158223.200, 40.0102081,-105.2442222, 1586.132,1607.460, 4.143,4.318
1721678202.311069,-19,0,1030,-3211,3710,-2415
1721678202.320319,-10,-7,1029,-3473,3456,-2109
1721678202.329569,-2,-2,1027,-3622,3202,-1812
1721678202.338819,3,5,1025,-3675,2738,-1540
1721678202.348069,10,10,1025,-3543,2266,-1663
1721678202.357319,10,9,1026,-3473,1750,-1602
1721678202.366569,7,1,1025,-3351,988,-823
1721678202.375824,0,-1,1021,-3360,192,-377,-19293,19854,74591
1721678202.385074,-9,-6,1020,-3561,-307,-867
1721678202.394324,-17,-7,1019,-3753,-709,-1838
1721678202.403574,-21,-6,1018,-4147,-954,-3667
1721678202.412824,-17,4,1018,-4515,-1042,-5592
1721678202.422074,-7,10,1017,-4865,-1085,-6545
1721678202.431324,7,9,1015,-5101,-1112,-6204
1721678202.440574,7,19,1015,-5127,-1252,-4822
1721678202.449830,-3,28,1016,-5083,-1532,-2967,-19415,20013,74420,84533,33659, 158223.300, 40.0102088,-105.2442220, 1586.192,1607.520, 4.126,4.298
1721678202.459080,-4,32,1016,-4935,-1785,-1925
1721678202.468330,-13,33,1021,-4410,-1943,-1147
1721678202.477580,-27,28,1023,-3850,-2170,-499
1721678202.486830,-35,26,1022,-3482,-2275,-27
1721678202.496080,-43,25,1021,-3158,-2127,577
1721678202.505330,-49,29,1025,-2703,-1855,428
1721678202.514580,-49,33,1026,-2388,-1418,271
1721678202.523835,-47,30,1022,-2458,-937,490,-19378,20202,74493,84531,33659, 158223.400, 40.0102095,-105.2442218, 1586.356,1607.684, 4.102,4.269
1721678202.533085,-51,27,1019,-2310,-517,280
1721678202.542335,-52,22,1016,-1995,-18,-394
1721678202.551585,-52,15,1017,-1671,595,-1234
1721678202.560835,-47,13,1023,-1417,1216,-2372
1721678202.570085,-36,15,1026,-1260,1758,-3964
1721678202.579335,-17,9,1028,-1198,2161,-5740
1721678202.588585,-15,9,1032,-1198,2388,-6869
1721678202.597840,-4,4,1029,-1347,2178,-6782,,,,84526,33663, 158223.500, 40.0102112,-105.2442220, 1586.682,1608.010, 4.080,4.240
1721678202.607090,-4,-1,1027,-1540,2038,-5705
1721678202.616340,-5,-7,1030,-1653,1750,-4629
1721678202.625590,-6,-2,1032,-1933,1470,-3693
1721678202.634840,-10,0,1028,-2266,1242,-2757
1721678202.644090,-13,1,1023,-2415,1146,-2468
1721678202.653340,-11,7,1020,-2563,1050,-2932
1721678202.662590,-10,12,1021,-2537,1015,-3544
1721678202.671845,-12,16,1025,-2441,901,-3632,-19281,20281,74481
1721678202.681095,-13,14,1028,-2563,691,-3605
1721678202.690345,-11,17,1032,-2712,551,-3509
1721678202.699595,-3,21,1031,-2843,428,-3535
1721678202.708845,0,19,1035,-2773,105,-3544
1721678202.718095,2,27,1038,-2738,-210,-3544
1721678202.727345,3,28,1035,-2913,-639,-2897
1721678202.736595,-2,29,1032,-2887,-1252,-1908
1721678202.745850,-11,34,1031,-2782,-1829,-1164,-19335,20440,74389,84529,33668, 158223.600, 40.0102116,-105.2442219, 1586.793,1608.121, 4.060,4.211
1721678202.755100,-14,30,1032,-2765,-2267,-718
1721678202.764350,-20,34,1031,-2651,-2704,-228
1721678202.773600,-24,33,1033,-2441,-3037,586
1721678202.782850,-29,34,1032,-2126,-3299,341
1721678202.792100,-34,29,1032,-1890,-3395,-377
1721678202.801350,-40,28,1034,-1575,-3413,-1339
1721678202.810600,-43,28,1035,-1260,-3387,-2433
1721678202.819855,-44,26,1039,-1111,-3159,-3308,-19592,20458,74151,84528,33674, 158223.700, 40.0102115,-105.2442216, 1586.800,1608.128, 4.045,4.195
1721678202.829105,-45,30,1039,-1023,-2888,-4375
1721678202.838355,-35,29,1034,-1041,-2652,-5452
1721678202.847605,-23,30,1028,-1111,-2407,-6090
1721678202.856855,-14,32,1020,-1137,-2302,-4865
1721678202.866105,-16,29,1014,-1093,-2380,-2967
1721678202.875355,-21,30,1012,-936,-2608,-1602
1721678202.884605,-29,32,1008,-700,-2809,-639
1721678202.893860,-34,25,1007,-551,-2949,175,-19848,20599,74176,84532,33674, 158223.800, 40.0102119,-105.2442218, 1586.894,1608.222, 4.033,4.184
1721678202.903110,-40,23,1007,-192,-3028,157
1721678202.912360,-35,24,1011,123,-3019,-517
1721678202.921610,-27,25,1011,298,-2809,-1715
1721678202.930860,-22,30,1013,385,-2660,-2625
1721678202.940110,-24,32,1016,377,-2739,-2643
1721678202.949360,-30,28,1017,342,-2940,-1978
