;Title, http://www.gcdataconcepts.com, LSM6DSM, BMP384, GPS
;Version, 2585, Build date, Feb  9 2024,  SN:CCDC20234ECBE41
;Start_time, 2024-07-22, 19:19:37.275
;Uptime, 5,sec,  Vbat, 4076, mv, EOL, 3500, mv
;Deadband, 0, counts
;DeadbandTimeout, 0.000,sec
;BMP384, SI, 0.100,sec, Units, Pa, mdegC
;Alt Trigger disabled
;LSM6DSM, SR,104,Hz, Units, mG, mdps, fullscale gyro 250dps, accel 4g
;Magnetometer, SR,10,Hz, Units, nT, Temperature, 31,degC
;CAM_M8 Gps, SR,10,Hz
;Gps Sats, TOW, 155995000, ver, 1, numSat, 24
;, gnssId, svId, cno, elev, azmith, prRes, flags,inUse
;, GPS, 005, 00, 00, 070, 0, 0x00001910
;, GPS, 008, 00, 02, 327, 0, 0x00001210
;, GPS, 010, 00, 38, 267, 0, 0x00001911
;, GPS, 013, 00, 15, 040, 0, 0x00001911
;, GPS, 015, 00, 43, 054, 0, 0x00001910
;, GPS, 016, 00, 08, 274, 0, 0x00001911
;, GPS, 018, 00, 71, 085, 0, 0x00001910
;, GPS, 023, 00, 68, 307, 0, 0x00001910
;Time, Ax, Ay, Az, Gx, Gy, Gz, Mx, My, Mz, P, T, TOW, Lat,Lon, Height(m), MSL(m), hdop(m), vdop(m)
1721675977.337370,-58,-167,988,-2388,-8505,3998,-4840,-38635,71667,84566,34021, 155995.310, 40.0102468,-105.2441079, 1589.226,1610.554, 268066.816,189551.856
1721675977.346666,-93,-154,1013,3334,-13423,-11358
1721675977.355962,-164,-25,1029,1558,-11839,-4699
1721675977.365258,-197,28,1064,490,-9232,1478
1721675977.374554,-164,91,1037,1759,-4813,3228
1721675977.383850,29,421,945,3273,-88,1662
1721675977.393146,73,-109,1040,6160,2878,-6012
1721675977.402442,-419,12,900,12180,4961,-14980
1721675977.793183,-250,52,1254,10737,2826,-11174,-4760,-39318,71032,84556,34023
1721675977.802479,48,58,881,12163,8680,5215
1721675977.811775,148,-38,993,13904,14420,-3457
1721675977.821071,142,-172,896,16092,13527,-14455
1721675977.830367,66,52,911,14945,9275,-13064
1721675977.839663,-8,54,923,11997,6020,-9765
1721675977.848959,3,-54,956,13108,5337,-11577
1721675977.858255,34,-179,958,15610,6632,-8532
1721675977.867554,61,-158,1006,15742,7840,-2170,,,,84560,34023
1721675977.876850,96,-165,997,13983,7848,6300
1721675977.886146,121,-82,1019,12924,7621,12862
1721675977.895442,104,-121,1033,11743,6588,14253
1721675977.904738,38,-116,1053,11620,4943,12005
1721675977.914034,3,-82,1081,11384,3430,10858
1721675977.923330,18,-55,1102,11340,3141,9397
1721675977.932626,26,-41,1112,11813,3167,6965
1721675977.941925,18,-90,1112,13187,3141,4042,-3869,-40332,70397,84560,34021
1721675977.951221,127,-174,1094,14438,2843,3228
1721675977.960517,131,-294,1085,14683,1907,2458
1721675977.969813,219,-218,1077,13388,-307,183
1721675977.979109,150,-123,1090,9433,-2599,4340
1721675977.988405,39,-81,1074,7053,-5915,7026
1721675977.997701,-17,-71,1055,6379,-7324,8277
1721675978.006997,-24,-73,1038,6283,-6790,7953
1721675978.016297,-28,-8,1025,6012,-5714,6807,-3808,-41088,69750,,, 156000.999, 40.0102468,-105.2441079, 1589.226,1610.554, 5445.644,3850.652
1721675978.025593,-55,146,998,5382,-4892,5206
1721675978.034889,-116,-142,964,6178,-4367,393
1721675978.044185,5,16,962,7963,-2879,-3719
1721675978.053481,-103,-66,942,6589,-1847,1767
1721675978.062777,2,-217,942,7193,-1120,-1164
1721675978.072073,58,-110,992,6362,1583,1172
1721675978.081369,41,-130,1026,4060,2100,2590
1721675978.090668,47,-174,1039,3579,1610,612,-3533,-41558,69464,84558,34025
1721675978.099964,54,-172,1033,3107,1828,472
1721675978.109260,60,-111,1032,2468,1575,2703
1721675978.118556,48,-82,1036,1855,1155,5818
1721675978.127852,-12,-80,1041,2013,481,6886
1721675978.137148,100,-25,1012,2494,516,6711
1721675978.146444,-102,-64,1028,2923,1627,6702
1721675978.155740,10,-1,1028,4454,1085,6291
1721675978.165039,1,-66,1020,5338,2773,3220,-3265,-41973,69018,84564,34025, 156001.100, 40.0102468,-105.2441079, 1589.226,1610.554, 5445.655,3850.659
1721675978.174335,93,-88,994,6615,3613,-385
1721675978.183631,141,-96,975,7219,3456,-648
1721675978.192927,114,-156,970,7263,1960,-1890
1721675978.202223,76,-189,986,7184,-44,-3885
1721675978.211519,39,-203,1010,6222,-1164,-3597
1721675978.220815,86,-232,1010,4830,-1094,-2100
1721675978.230111,158,-182,998,3028,-385,210
1721675978.239411,111,-189,1002,727,-867,586,,,,84554,34025, 156001.200, 40.0102468,-105.2441079, 1589.226,1610.554, 5445.667,3850.668
1721675978.248707,-107,-211,1053,-1172,-2713,-1505
1721675978.258003,23,47,1026,-2791,-2695,-1173
1721675978.267299,-47,-117,993,-3500,-140,1015
1721675978.276595,-32,-57,971,-1531,813,-2004
1721675978.285891,-32,-58,957,-1505,1715,-2170
1721675978.295187,33,-61,929,-752,2397,-3212
1721675978.304483,92,-99,897,254,3027,-4235
1721675978.313782,101,-155,883,1103,2651,-5242,-3289,-42059,68908,,, 156001.300, 40.0102468,-105.2441079, 1589.226,1610.554, 5445.681,3850.678
1721675978.323078,140,-158,914,1129,1487,-5347
1721675978.332374,166,-247,924,945,192,-4262
1721675978.341670,178,-232,963,595,-1672,-2162
1721675978.350966,103,-186,999,-743,-3684,1566
1721675978.360262,-8,-129,1021,-1776,-5539,4410
1721675978.369558,-34,-152,1025,-1776,-5845,2800
1721675978.378854,25,-268,1016,-1041,-4454,-683
1721675978.388184,275,-615,1079,-1120,-3159,-2450,-3405,-42034,69000,84567,34028
1721675978.397480,328,-496,1059,-4488,-3693,-840
1721675978.406776,303,-192,1094,-15233,-8330,8820
1721675978.416072,46,-144,1037,-22662,-14385,21953
1721675978.425368,-98,-143,1045,-23633,-17308,18620
1721675978.434664,-23,-128,1057,-23266,-14727,11436
1721675978.443960,-6,-87,1042,-23283,-10763,5538
1721675978.453256,-45,-12,1014,-23380,-8759,341
1721675978.462555,-159,85,1009,-22960,-7657,-342,-3729,-40759,69964,84563,34028, 156001.400, 40.0102468,-105.2441079, 1589.226,1610.554, 5445.697,3850.689
1721675978.471851,-230,104,1025,-21227,-5408,-4043
1721675978.481147,-218,80,1037,-17928,-1322,-9967
1721675978.490443,-165,31,1046,-14525,3430,-16372
1721675978.499739,-124,-41,1041,-11611,7568,-20388
1721675978.509035,-86,-97,1036,-9327,10622,-20825
1721675978.518331,-15,-141,1039,-8417,12836,-18725
1721675978.527627,-9,-164,1066,-8496,14096,-14972
1721675978.536927,26,-152,1083,-9292,14271,-10544,-3265,-39965,70703,84559,34028, 156001.500, 40.0102468,-105.2441079, 1589.226,1610.554, 5445.714,3850.701
1721675978.546223,86,-176,1078,-10368,14271,-6230
1721675978.555519,172,-328,1058,-11322,13877,-3387
1721675978.564815,245,-208,1052,-13081,12416,43
1721675978.574111,218,-128,1055,-16660,9415,5661
1721675978.583407,168,-79,1040,-18803,5337,9476
1721675978.592703,143,-42,1058,-19766,2240,10132
1721675978.601999,78,-24,1049,-20125,-9,9362
1721675978.611298,55,-5,1045,-19958,-1952,7717,-3186,-38781,71612
1721675978.620594,41,-4,1036,-19442,-2897,5276
1721675978.629890,55,-64,1033,-18453,-3360,2721
1721675978.639186,81,-112,1030,-17666,-3807,1058
1721675978.648482,111,-135,1048,-18130,-4690,1785
1721675978.657778,148,32,1018,-20510,-6327,4733
1721675978.667074,11,3,1049,-23030,-8287,8645
1721675978.676370,-17,15,1019,-21070,-9380,6457
1721675978.685669,-7,50,1011,-19643,-8610,3657,,,,84556,34025, 156001.600, 40.0103208,-105.2442547, 1616.376,1637.704, 130.765,150.606
1721675978.694965,3,-5,992,-17893,-7429,2240
1721675978.704261,16,142,1029,-15785,-6808,78
1721675978.713557,21,43,966,-14525,-6712,-648
1721675978.722853,28,47,987,-13177,-6755,-1917
1721675978.732149,34,55,962,-11445,-6703,-3518
1721675978.741445,52,32,966,-9616,-6887,-5259
1721675978.750741,59,-9,964,-7796,-7097,-6869
1721675978.760041,74,-38,966,-6483,-7429,-7455,-3796,-37957,72082,84556,34023, 156001.700, 40.0103584,-105.2442607, 1620.092,1641.420, 71.344,72.185
1721675978.769337,88,-61,976,-5783,-7814,-6965
1721675978.778633,93,-76,988,-5407,-8304,-6388
1721675978.787929,11,-155,1003,-5390,-8987,-5565
1721675978.797225,85,-93,1002,-5801,-9520,-3824
1721675978.806521,80,-135,1015,-7315,-8899,-2083
1721675978.815817,80,-150,1017,-8242,-9100,2301
1721675978.825113,69,-158,1023,-9677,-9380,5845
1721675978.834412,57,-128,1036,-11445,-9625,8058,-4144,-37274,72503,84558,34023, 156001.800, 40.0103851,-105.2442800, 1623.509,1644.836, 67.695,73.939
1721675978.843708,10,-126,1048,-13300,-9678,10465
1721675978.853004,-19,-125,1063,-14892,-9450,12101
1721675978.862300,-33,-120,1066,-16397,-8567,13597
1721675978.871596,9,5,1065,-17937,-7053,16047
1721675978.880892,14,276,1046,-19075,-5592,18103
1721675978.890188,-49,67,1026,-17710,-4577,12250
1721675978.899484,-5,6,1017,-13702,-3527,1995
1721675978.908783,4,25,1021,-12398,-2030,-105,-3985,-36517,73101
1721675978.918079,-11,79,1018,-12171,-1663,805
1721675978.927375,-30,112,1008,-11760,-1532,1417
1721675978.936671,-43,118,999,-10473,-963,376
1721675978.945967,-47,117,992,-8373,-132,-219
1721675978.955263,-42,126,981,-5985,560,70
1721675978.964559,-31,138,964,-3718,1260,157
1721675978.973855,-26,127,954,-1522,1802,-438
1721675978.983185,-27,92,945,630,2292,-1339,-3759,-36566,73114,84551,34030, 156001.900, 40.0103751,-105.2442977, 1621.952,1643.280, 56.294,63.994
1721675978.992481,-21,50,945,2477,2843,-2450
1721675979.001777,9,-1,949,3675,3526,-3562
1721675979.011073,47,-43,955,4200,4007,-3763
1721675979.020369,67,-47,965,3798,3998,-2888
1721675979.029665,83,-40,977,2844,3377,-1182
1721675979.038961,87,-30,988,1882,2275,-272
1721675979.048257,71,-25,998,1374,980,-552
1721675979.057557,55,-30,1006,1208,-254,-289,,,,84558,34032, 156002.000, 40.0103893,-105.2443110, 1621.688,1643.016, 47.647,56.074
1721675979.066853,46,-29,1008,1400,-1182,997
1721675979.076149,37,-29,1010,1663,-1558,2222
1721675979.085445,31,-20,1013,1995,-1715,2712
1721675979.094741,36,-7,1013,2109,-1654,2642
1721675979.104037,22,-6,1015,2109,-1540,1820
1721675979.113333,12,2,1023,2188,-1532,-18
1721675979.122629,0,13,1028,2170,-1357,-604
1721675979.131928,0,28,1026,2284,-963,-394,-3845,-36688,73071,,, 156002.100, 40.0104373,-105.2443183, 1625.593,1646.921, 41.130,49.637
1721675979.141224,8,39,1023,2590,-377,-735
1721675979.150520,5,39,1020,3220,201,-1645
1721675979.159816,4,45,1022,4218,560,-2258
1721675979.169112,-1,54,1022,5233,778,-2100
1721675979.178408,-4,46,1020,6397,1006,-1514
1721675979.187704,1,21,1019,7657,1522,-893
1721675979.197000,6,-13,1022,8672,2178,236
1721675979.206299,29,-30,1027,9074,2703,1128,-3601,-37127,72778,84556,34034
1721675979.215595,42,-37,1033,8803,3027,1242
1721675979.224891,47,-39,1037,8085,3027,1356
1721675979.234187,49,-40,1032,7263,2625,1373
1721675979.243483,54,-35,1026,6309,2170,1216
1721675979.252779,57,-15,1022,5198,1732,1023
1721675979.262075,52,4,1019,4209,1128,691
1721675979.271371,39,9,1012,3684,402,96
1721675979.280671,35,10,1006,3684,-149,-438,-3515,-37377,72631,84563,34030, 156002.200, 40.0104699,-105.2443171, 1628.309,1649.637, 36.274,44.617
1721675979.289967,27,8,1005,3964,-438,-254
1721675979.299263,13,-4,1013,4148,-482,-132
1721675979.308559,8,-26,1022,4227,-254,-149
1721675979.317855,17,-25,1028,3929,157,533
1721675979.327151,25,-14,1032,3247,866,1933
1721675979.336447,32,-4,1036,2643,1260,2940
1721675979.345743,33,-1,1040,2389,1233,2388
1721675979.355042,30,-6,1040,2337,945,945,-3411,-37542,72485,84555,34030, 156002.300, 40.0104920,-105.2443153, 1628.590,1649.918, 33.128,41.293
1721675979.364338,32,0,1043,2424,638,-245
1721675979.373634,40,4,1045,2625,376,-867
1721675979.382930,43,6,1042,2862,148,-1330
1721675979.392226,45,16,1037,3072,-79,-1698
1721675979.401522,30,10,1037,3378,-517,-1777
1721675979.410818,23,-3,1039,3798,-937,-1855
1721675979.420114,25,-13,1039,4192,-1024,-1295
1721675979.429413,8,-39,1043,4367,-972,-989,,,,,, 156002.400, 40.0105182,-105.2443127, 1631.084,1652.412, 30.073,37.859
1721675979.438709,8,-62,1042,4218,-867,-1698
1721675979.448005,23,-77,1039,3649,-394,-1147
1721675979.457301,35,-74,1038,2468,113,-429
1721675979.466597,34,-73,1034,823,297,-53
1721675979.475893,30,-66,1030,-840,201,402
1721675979.485189,13,-55,1024,-2668,-44,1155
1721675979.494485,-2,-40,1016,-4497,-70,1890
1721675979.503785,-20,-13,1013,-6098,192,2266,-3356,-37426,72583,84556,34032
1721675979.513081,-32,4,1016,-7297,848,1198
1721675979.522377,-35,14,1026,-7901,1872,-228
1721675979.531673,-18,4,1021,-8032,3193,-1532
1721675979.540969,6,-33,1014,-7595,4558,-2494
1721675979.550265,39,-63,1009,-7148,5696,-2249
1721675979.559561,66,-94,1005,-7166,6387,-910
1721675979.568857,88,-107,1002,-7630,6308,1111
1721675979.578156,77,-72,1004,-8750,5661,3316,-2905,-36810,73034,84554,34034, 156002.500, 40.0105226,-105.2443053, 1631.323,1652.651, 28.157,35.228
1721675979.587452,60,-21,1015,-10150,4663,5573
1721675979.596748,42,-2,1019,-11016,3972,6370
1721675979.606044,38,15,1008,-11121,3771,6081
1721675979.615340,47,36,1001,-10832,4025,5608
1721675979.624636,52,53,993,-10132,4217,5425
1721675979.633932,54,74,983,-9170,4060,5320
1721675979.643228,49,77,980,-8111,3613,4786
1721675979.652527,46,74,981,-6790,3167,4410,-2337,-36370,73449,84560,34032, 156002.600, 40.0105234,-105.2443010, 1632.314,1653.642, 26.673,33.015
1721675979.661823,37,55,988,-5390,2765,4515
1721675979.671119,45,51,998,-4025,2590,4655
1721675979.680415,28,48,1009,-2695,2345,5932
1721675979.689711,-24,74,1019,-1312,1995,9292
1721675979.699007,8,86,1012,254,2178,10333
1721675979.708303,41,74,1003,2153,3360,10150
1721675979.717599,17,96,995,4157,3867,11191
1721675979.726899,22,91,987,5635,3797,11961,-1403,-36865,73162,,, 156002.700, 40.0105191,-105.2442961, 1632.441,1653.769, 25.062,30.831
1721675979.736195,83,56,1037,7184,3990,9948
1721675979.745491,64,75,999,8567,3718,5888
1721675979.754787,65,49,1007,9800,2598,10045
1721675979.764083,54,48,1006,11253,2143,16415
1721675979.773379,56,118,1029,12268,1697,17220
1721675979.782675,74,27,1022,13668,1207,21621
1721675979.791971,56,-13,1010,15742,831,26871
1721675979.801270,29,7,1004,16372,35,31727,-378,-38104,72424,84555,34030
1721675979.810566,6,32,996,15925,-464,30485
1721675979.819862,54,34,974,15934,-105,27641
1721675979.829158,89,27,964,16380,1085,22890
1721675979.838454,62,-72,973,16862,1365,18427
1721675979.847750,116,-183,972,16643,1093,8837
1721675979.857046,-15,-126,988,14604,577,-7858
1721675979.866342,-8,-101,1004,12102,-490,-543
1721675979.875641,-7,-73,1011,10308,306,6160,,,,84556,34037, 156002.800, 40.0105115,-105.2442896, 1631.720,1653.048, 22.869,28.031
1721675979.884937,-15,-80,1017,9013,1513,8207
1721675979.894233,-21,-7,1020,7858,2826,5941
1721675979.903529,-23,109,1020,6808,4095,2327
1721675979.912825,-16,155,1016,7342,5197,3657
1721675979.922121,5,162,1006,9617,6632,4480
1721675979.931417,43,126,986,12487,8286,3692
1721675979.940713,85,88,981,15383,9415,5538
1721675979.950043,122,38,983,17492,9922,7840,610,-38922,71899,84554,34043, 156002.900, 40.0104858,-105.2442794, 1627.876,1649.204, 20.975,25.634
1721675979.959339,125,-28,985,18804,9607,7446
1721675979.968635,107,-100,998,19609,8583,6055
1721675979.977931,95,-164,1001,19627,7603,5136
1721675979.987227,66,-226,1000,18673,7148,4217
1721675979.996523,6,-279,1000,16792,7017,2397
1721675980.005819,-33,-247,1004,13904,7507,157
1721675980.015115,-2,-97,1029,10378,8995,2406
1721675980.024414,46,-17,1049,7604,10718,6545,1611,-39892,71380
1721675980.033710,98,-9,1052,6904,12110,5110
1721675980.043006,126,-53,1046,7455,12880,2371
1721675980.052302,139,-100,1045,8112,12626,1076
1721675980.061598,147,-106,1049,8077,11751,726
1721675980.070894,145,-75,1053,7394,10675,761
1721675980.080190,138,-56,1049,7035,9406,411
1721675980.089486,122,-54,1041,7473,8093,-368
1721675980.098786,97,-64,1032,8287,6877,-884,2362,-40582,70812,84560,34043, 156003.000, 40.0104862,-105.2442757, 1628.422,1649.750, 19.211,23.280
1721675980.108082,92,-63,1023,9004,6046,-762
1721675980.117378,104,-52,1012,9372,5810,218
1721675980.126674,115,-51,1006,9494,5748,743
1721675980.135970,119,-50,1009,9835,5495,148
1721675980.145266,113,-50,1013,10063,4943,-683
1721675980.154562,92,-64,1024,10220,4348,-1847
1721675980.163858,94,-84,1030,10500,3867,-1794
1721675980.173157,103,-125,1030,10745,3841,-167,3021,-41186,70343,84561,34037, 156003.100, 40.0104832,-105.2442760, 1628.288,1649.616, 17.740,21.270
1721675980.182453,100,-149,1028,10649,3841,1767
1721675980.191749,117,-143,1023,9975,3771,4191
1721675980.201045,138,-134,1019,8873,3946,5941
1721675980.210341,157,-143,1017,7735,3832,6483
1721675980.219637,164,-156,1018,6510,3290,5503
1721675980.228933,154,-152,1020,4935,2458,3771
1721675980.238229,149,-143,1022,3054,1723,2520
1721675980.247529,145,-109,1023,1190,1190,1741,,,,84567,34039, 156003.200, 40.0104870,-105.2442793, 1628.345,1649.673, 16.561,19.682
1721675980.256825,131,-87,1020,-297,673,1312
1721675980.266121,122,-87,1024,-936,87,166
1721675980.275417,111,-79,1026,-866,-473,-1558
1721675980.284713,104,-93,1016,-577,-919,-2940
1721675980.294009,97,-113,1014,-376,-1007,-3500
1721675980.303305,126,-112,1009,-603,-543,-4209
1721675980.312601,149,-126,1013,-1330,183,-4218
1721675980.321900,163,-121,1014,-2196,428,-4743,3192,-41247,70263
1721675980.331196,162,-121,1017,-3088,61,-4769
1721675980.340492,152,-117,1018,-3797,-700,-4227
1721675980.349788,158,-107,1019,-4313,-1330,-4227
1721675980.359084,150,-92,1020,-4786,-1829,-4454
1721675980.368380,127,-75,1024,-5013,-2634,-4953
1721675980.377676,98,-66,1029,-4856,-3483,-5889
1721675980.386972,80,-77,1029,-4366,-3982,-6904
1721675980.396271,76,-90,1022,-3622,-3947,-7298,2899,-40924,70532,84554,34037, 156003.300, 40.0104840,-105.2442777, 1627.099,1648.427, 15.803,18.515
1721675980.405567,99,-96,1012,-3141,-3562,-6458
1721675980.414863,121,-98,1003,-2931,-2923,-5049
1721675980.424159,132,-96,1002,-2782,-2590,-4052
1721675980.433455,129,-85,1002,-2817,-2739,-3299
1721675980.442751,125,-72,1002,-2922,-3133,-2923
1721675980.452047,120,-63,1004,-2791,-3500,-3098
1721675980.461343,116,-61,1003,-2546,-3807,-3500
1721675980.470643,112,-73,1001,-2100,-3973,-4043,2655,-40985,70489,84556,34037, 156003.400, 40.0104834,-105.2442778, 1626.193,1647.521, 14.874,17.356
1721675980.479939,107,-82,1004,-1601,-4235,-4717
1721675980.489235,103,-82,1009,-1338,-4402,-5215
1721675980.498531,102,-81,1010,-1242,-4402,-5600
1721675980.507827,103,-88,1007,-1198,-4279,-5425
1721675980.517123,99,-105,1011,-1111,-4017,-4909
1721675980.526419,106,-85,1007,-1242,-3754,-4752
1721675980.535715,112,-90,999,-1540,-3369,-3947
1721675980.545014,114,-113,995,-1662,-2975,-3229,2404,-40820,70617,84556,34037, 156003.500, 40.0104743,-105.2442763, 1624.759,1646.087, 14.117,16.340
1721675980.554310,125,-124,992,-1890,-2704,-3474
1721675980.563606,127,-111,997,-2415,-2695,-3063
1721675980.572902,130,-78,998,-3097,-2949,-2914
1721675980.582198,116,-68,1002,-3500,-3229,-2625
1721675980.591494,99,-74,1004,-3377,-3448,-3045
1721675980.600790,94,-78,999,-3106,-3518,-4384
1721675980.610086,89,-72,998,-2983,-3369,-5460
1721675980.619385,84,-65,1002,-3010,-3194,-6073
1721675980.628681,80,-68,1001,-2870,-2914,-6213
1721675980.637977,80,-88,1000,-2668,-2372,-6388
1721675980.647273,85,-82,1000,-2388,-1847,-6082
1721675980.656569,92,-61,1001,-2327,-1374,-5023
1721675980.665865,104,-46,999,-2248,-954,-4410
1721675980.675161,116,-49,996,-1846,-595,-4104
1721675980.684457,114,-69,1001,-1190,-622,-4340
1721675980.693757,116,-72,1004,-481,-989,-5128,2209,-40631,70672,84555,34039, 156003.600, 40.0104675,-105.2442734, 1623.378,1644.706, 13.586,15.536
1721675980.703053,110,-72,1005,9,-1322,-5723
1721675980.712349,106,-75,1002,482,-1689,-5189
1721675980.721645,103,-92,1003,1033,-1899,-4900
1721675980.730941,102,-101,1006,1392,-1960,-4594
1721675980.740237,105,-75,1010,1339,-2022,-4699
1721675980.749533,90,-67,1013,1138,-2074,-4025
1721675980.758829,81,-78,1016,1322,-2030,-3824
1721675980.768128,88,-86,1019,1680,-1689,-3859,2038,-40753,70538,84560,34046, 156003.700, 40.0104611,-105.2442709, 1622.520,1643.848, 13.110,14.822
1721675980.777424,100,-93,1016,1960,-1269,-3325
1721675980.786720,111,-98,1012,2118,-989,-3054
1721675980.796016,113,-96,1010,2162,-1042,-2862
1721675980.805312,113,-93,1008,2118,-1348,-2748
1721675980.814608,112,-96,1007,1960,-1637,-2870
1721675980.823904,111,-100,1006,1803,-1829,-2905
1721675980.833200,112,-87,1006,1532,-1987,-2687
1721675980.842499,98,-91,1010,1278,-2109,-2739,1947,-40802,70306,84562,34054, 156003.800, 40.0104532,-105.2442678, 1621.404,1642.732, 12.760,14.316
1721675980.851795,91,-98,1012,1243,-2328,-2993
1721675980.861091,97,-93,1012,1050,-2170,-3168
1721675980.870387,101,-88,1012,613,-1829,-3150
1721675980.879683,109,-81,1014,377,-1575,-3203
1721675980.888979,111,-81,1015,184,-1479,-3343
1721675980.898275,107,-84,1016,228,-1619,-3483
1721675980.907571,104,-97,1017,447,-1855,-3509
1721675980.916871,106,-104,1016,700,-2065,-3535,1831,-41015,70208
1721675980.926167,112,-101,1014,683,-2135,-3212
1721675980.935463,113,-99,1013,595,-2109,-2608
1721675980.944759,108,-101,1009,403,-2310,-2380
1721675980.954055,105,-100,1009,280,-2372,-2267
1721675980.963351,103,-93,1010,-122,-2258,-2179
1721675980.972647,98,-89,1014,-490,-2205,-2337
1721675980.981943,87,-83,1017,-778,-2048,-2809
1721675980.991242,87,-80,1013,-945,-1838,-3098,,,,84558,34054, 156003.900, 40.0104449,-105.2442629, 1619.765,1641.093, 12.329,13.792
1721675981.000538,96,-76,1013,-927,-1479,-3317
1721675981.009834,103,-77,1015,-752,-1120,-3544
1721675981.019130,106,-95,1016,-411,-963,-3780
1721675981.028426,106,-114,1019,-52,-1042,-3815
1721675981.037722,105,-122,1021,105,-1182,-3710
1721675981.047018,106,-112,1023,-8,-1260,-3369
1721675981.056314,107,-108,1025,-411,-1339,-2897
1721675981.065613,109,-108,1024,-796,-1313,-2494,1702,-41119,70214,84559,34059, 156004.000, 40.0104364,-105.2442582, 1618.160,1639.488, 11.957,13.339
1721675981.074909,107,-105,1024,-1067,-1383,-2144
1721675981.084205,105,-95,1026,-1391,-1505,-2039
1721675981.093501,101,-95,1025,-1645,-1663,-2127
1721675981.102797,102,-104,1023,-1741,-1724,-2415
1721675981.112093,111,-110,1020,-1820,-1698,-2573
1721675981.121389,120,-111,1013,-2073,-1680,-2310
1721675981.130685,124,-108,1011,-2345,-1847,-2135
1721675981.139985,118,-101,1014,-2660,-2162,-2354,1531,-41125,70281,84562,34054, 156004.100, 40.0104289,-105.2442544, 1616.756,1638.084, 11.605,12.909
1721675981.149281,105,-98,1019,-3027,-2617,-2669
1721675981.158577,96,-103,1020,-3447,-2888,-3002
1721675981.167873,89,-97,1021,-3710,-2940,-3229
1721675981.177169,86,-91,1021,-3946,-2800,-3089
1721675981.186465,86,-85,1023,-4077,-2529,-3019
1721675981.195761,87,-86,1023,-4060,-2354,-2879
1721675981.205057,87,-88,1021,-3963,-2100,-2634
1721675981.214356,100,-84,1015,-3780,-1908,-2293,1385,-40881,70410
1721675981.223652,109,-84,1011,-3500,-1733,-1978
1721675981.232948,112,-89,1008,-3237,-1820,-1838
1721675981.242244,110,-89,1005,-3018,-2118,-1952
1721675981.251540,106,-87,1004,-2913,-2372,-2013
1721675981.260836,105,-83,1005,-3071,-2547,-1908
1721675981.270132,103,-80,1004,-3272,-2433,-1812
1721675981.279428,97,-73,1002,-3290,-2337,-1715
1721675981.288727,92,-67,1001,-3237,-2380,-1488,1226,-40789,70507,84559,34048, 156004.200, 40.0104213,-105.2442515, 1615.462,1636.790, 11.350,12.541
1721675981.298023,89,-67,1002,-3062,-2293,-1505
1721675981.307319,89,-69,1001,-2712,-2118,-1759
1721675981.316615,93,-75,999,-2388,-1978,-2030
1721675981.325911,100,-86,997,-2117,-1750,-2363
1721675981.335207,103,-95,1000,-1863,-1777,-2555
1721675981.344503,103,-100,1003,-1776,-1908,-2494
1721675981.353799,98,-105,1008,-1758,-2135,-2345
1721675981.363099,96,-99,1011,-1802,-2249,-2057,1129,-40777,70587,84555,34048, 156004.300, 40.0104159,-105.2442488, 1614.379,1635.707, 11.165,12.241
1721675981.372395,92,-87,1013,-2021,-2135,-1532
1721675981.381691,92,-74,1013,-2178,-1917,-1138
1721675981.390987,96,-70,1012,-2065,-1645,-1129
1721675981.400283,105,-76,1010,-1802,-1497,-1575
1721675981.409579,111,-92,1012,-1505,-1444,-2319
1721675981.418875,116,-108,1013,-1277,-1514,-3054
1721675981.428171,113,-109,1017,-1260,-1820,-3282
1721675981.437470,105,-104,1019,-1443,-2214,-3080,,,,84564,34063, 156004.400, 40.0104086,-105.2442457, 1612.956,1634.284, 10.946,11.945
1721675981.446766,99,-97,1019,-1671,-2555,-2844
1721675981.456062,85,-106,1017,-1863,-2704,-2643
1721675981.465358,84,-104,1011,-1986,-2844,-2337
1721675981.474654,91,-85,1006,-2248,-2739,-1785
1721675981.483950,95,-73,1006,-2511,-2625,-1540
1721675981.493246,98,-70,1006,-2555,-2660,-1829
1721675981.502542,92,-66,1009,-2415,-2783,-2179
1721675981.511841,90,-62,1012,-2213,-3037,-2363,897,-40551,70611
1721675981.521137,91,-60,1015,-2038,-3133,-2415
1721675981.530433,90,-63,1017,-1741,-3159,-2704
1721675981.539729,99,-57,1015,-1426,-3203,-3080
1721675981.549025,93,-62,1011,-1163,-3317,-3220
1721675981.558321,91,-68,1012,-787,-3483,-3640
1721675981.567617,87,-76,1015,-595,-3658,-4078
1721675981.576913,82,-83,1013,-577,-3675,-4340
1721675981.586213,80,-91,1009,-656,-3579,-4244,598,-40606,70697,84561,34061, 156004.500, 40.0103959,-105.2442423, 1611.094,1632.422, 10.535,11.523
1721675981.595509,76,-96,1010,-647,-3422,-3833
1721675981.604805,72,-98,1012,-743,-3247,-3360
1721675981.614101,75,-102,1014,-901,-2897,-3010
1721675981.623397,77,-110,1018,-1163,-2538,-2774
1721675981.632693,85,-115,1020,-1461,-2293,-2494
1721675981.641989,89,-119,1019,-1793,-1925,-2092
1721675981.651285,92,-121,1020,-2283,-1803,-1820
1721675981.660614,96,-113,1016,-2800,-1777,-1365,366,-40356,70782,84555,34061, 156004.600, 40.0103883,-105.2442397, 1609.897,1631.225, 10.287,11.213
1721675981.669910,98,-96,1010,-3412,-1759,-928
1721675981.679206,96,-84,1005,-3788,-1794,-665
1721675981.688502,91,-75,1001,-3911,-1960,-814
1721675981.697798,82,-68,998,-3850,-2100,-1287
1721675981.707094,77,-62,998,-3508,-2188,-1759
1721675981.716390,75,-67,998,-3158,-2118,-2030
1721675981.725686,79,-81,1002,-2747,-1829,-2450
1721675981.734986,79,-84,1008,-2485,-1470,-2818,280,-40142,70867,84562,34066, 156004.700, 40.0103853,-105.2442382, 1609.289,1630.617, 10.066,10.929
1721675981.744282,74,-78,1015,-2388,-1269,-2888
1721675981.753578,72,-80,1019,-2310,-1129,-2844
1721675981.762874,77,-88,1019,-1968,-849,-2853
1721675981.772170,94,-91,1015,-1618,-403,-2652
1721675981.781466,112,-84,1010,-1338,-35,-1987
1721675981.790762,115,-76,1008,-1163,61,-1278
1721675981.800058,111,-81,1008,-770,-385,-753
1721675981.809357,110,-79,1010,-446,-657,-595
1721675981.818653,108,-79,1013,-402,-840,-289
1721675981.827949,109,-84,1013,-297,-1015,-79
1721675981.837245,109,-91,1012,-183,-1129,87
1721675981.846541,111,-97,1011,-61,-1234,420
1721675981.855837,110,-100,1006,-8,-1444,621
1721675981.865133,109,-97,1002,-157,-1812,813
1721675981.874429,107,-87,1000,-358,-2057,945
1721675981.883728,95,-77,1004,-735,-2284,831,250,-40209,70935,84560,34057, 156004.800, 40.0103806,-105.2442362, 1608.404,1629.732, 9.842,10.643
1721675981.893024,76,-77,1009,-1155,-2529,358
1721675981.902320,67,-82,1013,-1382,-2608,-237
1721675981.911616,68,-86,1012,-1496,-2275,-473
1721675981.920912,85,-79,1009,-1610,-1847,-88
1721675981.930208,97,-75,1004,-1636,-1374,673
1721675981.939504,103,-71,1000,-1522,-1287,1400
1721675981.948800,106,-60,997,-1347,-1427,1863
1721675981.958100,109,-54,997,-1120,-1803,1758,189,-40100,70922,84565,34068, 156004.900, 40.0103761,-105.2442346, 1607.447,1628.775, 9.543,10.315
1721675981.967396,106,-57,1000,-822,-2249,1190
1721675981.976692,89,-61,1004,-481,-2800,288
1721675981.985988,76,-61,1009,-210,-3290,-342
1721675981.995284,66,-51,1015,-8,-3509,-683
1721675982.004580,60,-42,1016,237,-3404,-744
1721675982.013876,55,-38,1017,525,-3159,-727
1721675982.023172,49,-36,1018,1042,-2774,-622
1721675982.032471,46,-45,1021,1628,-2328,-534,61,-40332,70800,84563,34070, 156005.000, 40.0103702,-105.2442329, 1606.539,1627.867, 9.205,9.981
1721675982.041767,49,-65,1026,2310,-1785,-587
1721675982.051063,58,-88,1026,2827,-1173,-665
1721675982.060359,68,-93,1027,2984,-709,-394
1721675982.069655,76,-94,1027,2757,-342,271
1721675982.078951,81,-103,1027,2407,-167,595
1721675982.088247,84,-116,1028,2039,-105,297
1721675982.097543,83,-121,1029,1497,-44,-114
1721675982.106842,80,-118,1027,744,-27,-350,79,-40289,70745
1721675982.116138,78,-114,1026,-52,17,-455
1721675982.125434,76,-108,1027,-717,87,-613
1721675982.134730,71,-98,1026,-1295,253,-805
1721675982.144026,72,-90,1021,-1671,455,-875
1721675982.153322,76,-93,1018,-1802,735,-998
1721675982.162618,81,-98,1016,-1723,1023,-1234
1721675982.171914,84,-96,1020,-1627,1198,-1330
1721675982.181214,88,-104,1020,-1531,1172,-1138,,,,84556,34068, 156005.100, 40.0103651,-105.2442312, 1605.809,1627.137, 8.909,9.688
1721675982.190510,95,-117,1017,-1303,1120,-1190
1721675982.199806,105,-126,1010,-1216,1111,-1147
1721675982.209102,115,-118,1003,-1373,1050,-788
1721675982.218398,116,-98,992,-1653,700,-114
1721675982.227694,114,-74,986,-2047,236,568
1721675982.236990,101,-60,985,-2240,-263,603
1721675982.246286,91,-49,986,-2056,-692,-140
1721675982.255585,89,-41,988,-1680,-937,-753,158,-40313,70745,84558,34075, 156005.200, 40.0103616,-105.2442301, 1605.291,1626.619, 8.633,9.413
1721675982.264881,92,-33,990,-1198,-989,-963
1721675982.274177,95,-28,994,-481,-919,-937
1721675982.283473,92,-29,1001,228,-762,-1033
1721675982.292769,83,-42,1009,1304,-1217,-1330
1721675982.302065,79,-55,1016,2284,-1514,-1558
1721675982.311361,196,-7,1007,2975,-1619,-1444
1721675982.320657,404,126,992,3544,-1637,-1015
1721675982.329987,181,-116,1004,5977,-4822,4331,-128,-40509,70532,,, 156005.300, 40.0103582,-105.2442288, 1604.838,1626.166, 8.376,9.172
1721675982.339283,105,-148,1010,8672,-9232,472
1721675982.348579,96,-214,1023,8392,-10150,-928
1721675982.357875,52,-56,1020,7254,-10395,1102
1721675982.367171,68,-98,1015,5382,-10063,5013
1721675982.376467,1,-176,1019,5277,-9433,1715
1721675982.385763,-62,-73,1019,4349,-8628,-1794
1721675982.395059,-23,-100,1001,2573,-6895,2178
1721675982.404358,40,-177,1008,2127,-4095,1417,-286,-40753,70379,84562,34075
1721675982.413654,14,-146,1015,875,-2039,-902
1721675982.422950,-25,-66,1028,-1251,-1330,481
1721675982.432246,9,-53,1018,-2126,105,4768
1721675982.441542,50,-95,1007,-1627,2511,4112
1721675982.450838,67,-122,1002,-1128,4016,1391
1721675982.460134,65,-106,1005,-1548,4313,-88
1721675982.469430,74,-83,1010,-2310,4313,-630
1721675982.478730,89,-83,1018,-2520,4366,-1252,-73,-40728,70373,84555,34072, 156005.400, 40.0103550,-105.2442280, 1604.397,1625.725, 8.130,8.937
1721675982.488026,104,-79,1019,-2248,4383,-2205
1721675982.497322,42,-34,1015,-1898,4016,-2529
1721675982.506618,20,-5,998,-1321,3465,-1890
1721675982.515914,28,-45,983,18,3683,-1138
1721675982.525210,43,-62,979,1663,4077,-1707
1721675982.534506,54,-46,985,2617,4392,-1374
1721675982.543802,78,-73,991,3124,4523,-849
1721675982.553101,133,-113,998,3632,4707,-1593,36,-40869,70227,84555,34070, 156005.500, 40.0103513,-105.2442274, 1603.897,1625.225, 7.884,8.694
1721675982.562397,167,-135,1009,3754,4523,-1978
1721675982.571693,194,-119,1021,3273,3500,-1383
1721675982.580989,199,-120,1034,2590,1846,192
1721675982.590285,187,-158,1035,2249,-105,1128
1721675982.599581,175,-145,1033,1847,-1969,1846
1721675982.608877,129,-122,1036,972,-3710,3167
1721675982.618173,79,-94,1035,210,-5250,3237
1721675982.627472,46,-78,1036,-201,-6003,2975,,,,,, 156005.600, 40.0103477,-105.2442261, 1603.371,1624.699, 7.661,8.473
1721675982.636768,26,-69,1031,-175,-5915,2485
1721675982.646064,21,-87,1028,70,-5242,1373
1721675982.655360,22,-117,1037,394,-4437,140
1721675982.664656,39,-112,1036,272,-3492,-613
1721675982.673952,63,-120,1036,-341,-2520,-779
1721675982.683248,80,-130,1035,-805,-1803,656
1721675982.692544,81,-113,1033,-1330,-1313,1330
1721675982.701844,208,57,1047,-1890,-1120,1846,-91,-40899,70239,84557,34072
1721675982.711140,97,-72,1033,-1863,-1435,-762
1721675982.720436,69,-150,1004,97,-3054,-7429
1721675982.729732,20,-221,998,622,-3430,-7009
1721675982.739028,-24,-198,995,-402,-3308,-5522
1721675982.748324,5,-57,1002,-2677,-2415,-2757
1721675982.757620,44,8,1004,-4147,-919,2616
1721675982.766916,60,-21,996,-3587,183,1610
1721675982.776215,65,-76,991,-2126,743,-814,-250,-40917,70214,84559,34081, 156005.700, 40.0103432,-105.2442241, 1602.757,1624.085, 7.470,8.287
1721675982.785511,74,-87,989,-1251,971,-2118
1721675982.794807,94,-94,991,-1137,927,-2687
1721675982.804103,121,-120,996,-1233,927,-2862
1721675982.813399,126,-132,1004,-1443,586,-2800
1721675982.822695,116,-114,1004,-1898,-202,-1409
1721675982.831991,100,-99,1003,-2528,-814,376
1721675982.841287,87,-79,1000,-2835,-1120,840
1721675982.850586,74,-60,1002,-2957,-1173,323,-427,-40533,70410,84558,34077, 156005.800, 40.0103374,-105.2442215, 1601.994,1623.322, 7.301,8.114
1721675982.859882,64,-73,1012,-2896,-1190,-919
1721675982.869178,47,-79,1016,-2590,-1077,-2687
1721675982.878474,46,-84,1022,-2362,-875,-4410
1721675982.887770,68,-106,1024,-2152,-307,-4122
1721675982.897066,92,-112,1026,-2065,350,-4375
1721675982.906362,106,-104,1024,-2205,586,-3964
1721675982.915658,105,-93,1019,-2371,437,-2722
1721675982.924958,96,-85,1017,-2248,-62,-1435,-561,-40435,70501
1721675982.934254,95,-92,1018,-1977,-517,-1295
1721675982.943550,98,-104,1020,-1618,-823,-1820
1721675982.952846,93,-109,1022,-1312,-1322,-1978
1721675982.962142,67,-99,1031,-1496,-1567,-1409
1721675982.971438,39,-79,1036,-1706,-1847,-893
1721675982.980734,14,-47,1031,-1776,-1637,-552
1721675982.990030,-1,-115,1024,-1461,-1033,-394
1721675982.999390,28,-98,1007,-822,-27,1093,,,,84555,34083, 156005.900, 40.0103344,-105.2442203, 1601.640,1622.968, 7.172,7.969
1721675983.008686,56,-144,992,-1058,1076,3202
1721675983.017982,88,-128,991,-1627,1776,3211
1721675983.027278,94,-55,996,-2878,1968,4112
1721675983.036574,77,-49,1002,-3780,1811,4366
1721675983.045870,44,-96,1010,-3465,1776,2817
1721675983.055166,39,-92,1017,-2957,2205,1872
1721675983.064462,54,-73,1015,-3062,2878,2205
1721675983.073761,67,-16,1008,-3115,3403,2248,-244,-40270,70617,84560,34083, 156006.000, 40.0103327,-105.2442196, 1601.406,1622.734, 7.092,7.868
1721675983.083057,56,11,988,-2773,3788,1540
1721675983.092353,176,-152,925,-1347,3858,-140
1721675983.101649,84,-133,931,-17,3281,-1339
1721675983.110945,25,-21,970,-1338,1435,-1155
1721675983.120241,71,-32,987,-2380,1610,-2415
1721675983.129537,99,-93,994,-1181,3202,-3430
1721675983.138833,136,-178,995,9,4182,-3439
1721675983.148133,154,-162,997,-122,4287,-2975,-61,-40228,70745,84557,34083, 156006.100, 40.0103311,-105.2442188, 1601.129,1622.457, 6.999,7.757
1721675983.157429,153,-148,1004,-1478,3447,-1313
1721675983.166725,309,46,1035,-2738,2388,796
1721675983.176021,276,42,1040,-3675,1487,962
1721675983.185317,224,-122,1048,-1863,-1304,-9258
1721675983.194613,186,-227,1037,35,-3535,-10247
1721675983.203909,110,-227,1046,-936,-5399,-8392
1721675983.213205,-155,-107,1053,-3176,-7018,-4498
1721675983.222504,-137,-22,1016,-5250,-6528,-2555,-677,-40100,70788
1721675983.231800,-5,1,1027,-5232,-2197,-1680
1721675983.241096,168,71,1059,-3841,1478,-972
1721675983.250392,71,-97,1077,-2423,1531,-7420
1721675983.259688,103,-122,1086,-297,-630,-12732
1721675983.268984,152,-210,1078,0,-1077,-9232
1721675983.278280,196,-172,1076,-288,-1619,-2179
1721675983.287576,196,-139,1079,-1951,-2809,5661
1721675983.296875,175,-65,1073,-3745,-4262,4200,-933,-40063,70861,84551,34092, 156006.200, 40.0103281,-105.2442175, 1600.780,1622.108, 6.920,7.659
1721675983.306171,24,-10,1102,-4453,-6213,3010
1721675983.315467,-12,-88,1092,-3386,-7867,11235
1721675983.324763,43,-162,1057,-2108,-7744,9336
1721675983.334059,25,-212,1020,-2283,-7385,-2170
1721675983.343355,9,-194,1002,-3526,-8147,-5172
1721675983.352651,-34,-150,981,-5775,-8637,-5145
1721675983.361947,-69,-108,972,-8198,-8654,-5417
1721675983.371247,-43,-85,965,-10062,-7665,-6405,,,,84560,34095, 156006.300, 40.0103262,-105.2442167, 1600.493,1621.821, 6.845,7.569
1721675983.380543,8,-90,957,-11103,-5592,-2993
1721675983.389839,-17,-97,950,-11725,-3763,647
1721675983.399135,-43,-49,964,-12337,-2722,5075
1721675983.408431,0,38,963,-13055,-1138,7551
1721675983.417727,23,-4,989,-12950,770,10421
1721675983.427023,87,-65,979,-11943,2091,6055
1721675983.436319,91,-81,1021,-11497,3141,5521
1721675983.445618,0,-30,1042,-11952,3316,7656,-866,-39202,71472,84559,34092, 156006.400, 40.0103244,-105.2442160, 1600.187,1621.515, 6.778,7.482
1721675983.454914,-32,-17,1064,-12573,3298,19897
1721675983.464210,165,-161,1048,-12792,4620,24193
1721675983.473506,56,71,1066,-12950,6195,26005
1721675983.482802,181,-38,1026,-13676,5932,28358
1721675983.492098,247,-69,1006,-12915,5985,7831
1721675983.501394,155,-24,1027,-12591,4051,3421
1721675983.510690,156,-21,1007,-12486,1260,7612
1721675983.519989,113,-25,981,-12013,70,5022,18,-38439,72167
1721675983.529285,70,-47,979,-11427,-639,5293
1721675983.538581,53,22,992,-11261,-657,6816
1721675983.547877,34,37,985,-11383,-797,11760
1721675983.557173,1,61,969,-10867,-1059,15085
1721675983.566469,-4,15,965,-10045,-368,12206
1721675983.575765,23,-52,980,-8907,1706,8190
1721675983.585061,15,-169,992,-8356,3587,6553
1721675983.594361,26,-225,997,-9117,4401,4025,579,-37591,73071,84563,34092, 156006.500, 40.0103224,-105.2442151, 1599.933,1621.261, 6.715,7.404
1721675983.603657,4,-189,1016,-11908,5206,-1033
1721675983.612953,-83,-116,1045,-15373,6440,-3299
1721675983.622249,-56,-52,1052,-17990,8566,-5084
1721675983.631545,43,12,1051,-19521,12258,-5977
1721675983.640841,45,164,1050,-19880,14586,-4970
1721675983.650137,171,212,1042,-18506,14787,-3360
1721675983.659433,208,248,1044,-14525,13895,3447
1721675983.668793,224,279,1036,-9712,11506,5503,860,-37365,72949,84560,34097, 156006.600, 40.0103195,-105.2442142, 1599.532,1620.860, 6.655,7.329
1721675983.678089,244,319,1029,-4602,8732,1618
1721675983.687385,273,308,1016,1042,5705,-2634
1721675983.696681,288,256,1010,7167,2152,-5425
1721675983.705977,272,172,1003,13082,-1847,-5679
1721675983.715273,239,87,996,17973,-6038,-5609
1721675983.724569,171,13,984,21280,-9765,-6449
1721675983.733865,124,-45,971,23109,-12723,-6248
1721675983.743164,82,-83,965,23879,-14333,-6178,-305,-38433,72119,84556,34097, 156006.700, 40.0103164,-105.2442133, 1599.044,1620.372, 6.593,7.247
1721675983.752460,59,-115,958,23748,-14989,-6983
1721675983.761756,54,-152,957,23074,-14910,-7307
1721675983.771052,55,-169,949,21840,-14534,-6510
1721675983.780348,27,-194,940,19662,-13983,-6930
1721675983.789644,23,-246,949,17072,-13239,-9092
1721675983.798940,54,-244,982,14053,-12058,-11358
1721675983.808236,70,-160,1018,10387,-10947,-10203
1721675983.817536,100,-60,1044,6755,-10404,-5863
1721675983.826832,106,0,1051,4384,-9967,-3124
1721675983.836128,127,10,1037,3562,-9599,-2818
1721675983.845424,95,-15,1027,3737,-9345,-3194
1721675983.854720,18,-62,1021,3912,-9459,-3947
1721675983.864016,-77,-14,1016,3387,-9179,-4594
1721675983.873312,-63,-38,1026,2407,-7648,-4218
1721675983.882608,-25,-161,1030,2214,-4725,-4192
1721675983.891907,-26,-181,1033,1427,-2205,-2433,-921,-38507,72027,84554,34097, 156006.800, 40.0103138,-105.2442120, 1598.648,1619.976, 6.535,7.165
1721675983.901203,-74,-138,1043,-1128,-613,-1260
1721675983.910499,-59,-49,1048,-3928,1041,-517
1721675983.919795,1,-43,1029,-5565,3456,-140
1721675983.929091,26,2,1025,-5608,5425,-508
1721675983.938387,6,-3,1020,-5381,6177,8
1721675983.947683,46,24,1006,-4628,6728,568
1721675983.956979,131,33,996,-3666,7595,1426
1721675983.966279,172,24,994,-2415,7577,192,-634,-38104,72290,84556,34099, 156006.900, 40.0103105,-105.2442110, 1598.141,1619.469, 6.470,7.072
1721675983.975575,166,61,1001,-1260,6265,-858
1721675983.984871,195,45,1000,-105,4243,-2074
1721675983.994167,185,-19,1003,1803,2275,-2608
1721675984.003463,166,-82,1006,3614,148,-2223
1721675984.012759,182,-99,1007,4209,-1575,-1068
1721675984.022055,144,-80,1008,3807,-3028,1155
1721675984.031351,89,-45,1002,3247,-4752,3578
1721675984.040650,82,-27,1003,2958,-5837,5381,-750,-38281,72064,84548,34110, 156007.000, 40.0103063,-105.2442089, 1597.578,1618.906, 6.398,6.968
1721675984.049946,82,-33,1006,2984,-6047,5713
1721675984.059242,48,-45,1015,3019,-5959,4838
1721675984.068538,76,-80,1028,2914,-5889,3981
1721675984.077834,81,-99,1044,2555,-5522,2975
1721675984.087130,107,-120,1051,1952,-5635,3141
1721675984.096426,116,-137,1054,1068,-6055,3535
1721675984.105722,111,-98,1054,-148,-6852,3613
1721675984.115021,116,-88,1049,-1618,-7648,3920,-1458,-37963,72143
1721675984.124317,37,-34,1018,-2616,-8392,3447
1721675984.133613,3,-60,1017,-3281,-9048,3412
1721675984.142909,-5,-27,1010,-3657,-8252,-3142
1721675984.152205,26,12,1010,-4313,-7070,-9337
1721675984.161501,95,-102,989,-4340,-6029,-8890
1721675984.170797,-57,39,973,-4226,-5819,-10500
1721675984.180093,-205,-55,1013,-5267,-6440,-17439
1721675984.189393,-155,-47,1023,-3255,-5102,-18927,,,,84561,34110, 156007.100, 40.0103015,-105.2442068, 1596.884,1618.212, 6.309,6.850
1721675984.198689,-27,-51,1029,-1933,-1365,-7630
1721675984.207985,14,-57,1048,-1085,1198,437
1721675984.217281,56,22,1068,-507,1303,5302
1721675984.226577,61,135,1024,-691,962,8671
1721675984.235873,42,259,1001,53,551,4952
1721675984.245169,32,181,980,3124,603,-2853
1721675984.254465,96,50,982,8225,1251,-10010
1721675984.263764,156,32,1000,12198,1688,-11752,-1593,-38104,72088,84561,34112, 156007.200, 40.0102973,-105.2442050, 1596.237,1617.565, 6.212,6.723
1721675984.273060,297,112,1035,13335,1050,-8645
1721675984.282356,384,75,1029,13633,-237,-8803
1721675984.291652,263,-138,1028,15409,-3833,-10107
1721675984.300948,96,-309,1014,16249,-8400,-7263
1721675984.310244,4,-347,1012,13633,-11209,-2109
1721675984.319540,-35,-252,1012,8470,-11297,1382
1721675984.328836,-87,-205,1009,3325,-9792,6930
1721675984.338135,-73,-194,1011,-577,-7700,7568,-2081,-38366,71807,84558,34117, 156007.300, 40.0102932,-105.2442032, 1595.752,1617.080, 6.154,6.651
1721675984.347431,48,-48,1013,-4200,-5102,4025
1721675984.356727,149,-1,1026,-7656,-3360,3018
1721675984.366023,-72,127,1035,-8697,-3999,3158
1721675984.375319,-58,67,1014,-8032,-5469,1618
1721675984.384615,-32,97,1015,-6002,-4183,-2590
1721675984.393911,41,103,1014,-3990,-3150,691
1721675984.403207,33,88,1008,-2170,-3072,-665
1721675984.412507,62,23,1021,-140,-3789,-3500,-2563,-38616,71728
1721675984.421803,69,-29,1028,2030,-4174,-4647
1721675984.431099,44,-70,1033,4087,-4979,306
1721675984.440395,12,-92,1031,5285,-5854,1671
1721675984.449691,-33,73,1002,5863,-6362,1776
1721675984.458987,-3,110,992,6799,-6388,2913
1721675984.468283,-90,-93,974,10658,-5872,3272
1721675984.477579,-21,-125,986,14928,-5819,2283
1721675984.486878,45,-55,996,15383,-4472,1452,-2319,-39385,71002,84563,34112, 156007.400, 40.0102894,-105.2442014, 1595.286,1616.614, 6.100,6.587
1721675984.496174,46,-32,1021,14762,-3588,752
1721675984.505470,-89,-57,1035,15287,-3772,5188
1721675984.514766,-148,-148,1034,16258,-3597,11401
1721675984.524062,-114,-193,1031,15707,-622,11427
1721675984.533358,-45,-229,1031,12985,3780,10150
1721675984.542654,32,-214,1028,9118,7752,8120
1721675984.551950,43,-158,1025,4612,10176,8618
1721675984.561249,46,-132,1022,368,10806,9808,,,,84550,34119, 156007.500, 40.0102856,-105.2441990, 1594.893,1616.221, 6.040,6.521
1721675984.570545,66,-130,1011,-2878,10858,9835
1721675984.579841,122,-77,1010,-5381,10902,8041
1721675984.589137,140,-58,1027,-7306,10526,5792
1721675984.598433,85,-58,1062,-8207,8723,3622
1721675984.607729,19,-60,1100,-8522,6378,2003
1721675984.617025,6,-17,1111,-8706,5083,1540
1721675984.626321,47,-21,1094,-8610,5215,1198
1721675984.635621,44,-84,1077,-7350,5757,752,-1525,-39056,71459,84563,34124, 156007.600, 40.0102817,-105.2441971, 1594.491,1615.819, 5.977,6.454
1721675984.644917,80,-115,1075,-5801,5775,1601
1721675984.654213,138,-120,1061,-5626,5941,2878
1721675984.663509,165,-87,1048,-6562,5547,3990
1721675984.672805,118,-83,1033,-7490,4103,4471
1721675984.682101,115,-17,996,-7735,1960,5346
1721675984.691397,141,-13,990,-7936,481,5836
1721675984.700693,130,7,982,-7358,-1199,5328
1721675984.710022,77,-4,1003,-6685,-3772,4777,-1391,-38690,71734
1721675984.719318,18,-57,1051,-5888,-6353,3342
1721675984.728614,-4,-155,1058,-5425,-7770,2196
1721675984.737910,28,-143,1017,-6300,-7657,2598
1721675984.747206,37,-94,989,-8925,-7044,3753
1721675984.756502,-9,-35,982,-11436,-7149,2747
1721675984.765798,-81,-28,986,-12985,-7648,498
1721675984.775094,-16,69,999,-13090,-7289,-1330
1721675984.784363,84,84,998,-12425,-5268,-1750,-1910,-38043,72003,84556,34119, 156007.700, 40.0102795,-105.2441961, 1594.200,1615.528, 5.917,6.389
1721675984.793659,90,-35,1005,-9161,-4822,-998
1721675984.802955,95,-41,994,-5110,-7158,2520
1721675984.812251,48,67,963,-3622,-10177,7533
1721675984.821547,15,129,946,-2283,-13099,10062
1721675984.830843,-11,36,931,1707,-14298,9598
1721675984.840139,-77,-62,963,6694,-14727,9467
1721675984.849435,-105,-103,1016,8978,-14770,9213
1721675984.858735,-173,-29,1045,7683,-13790,7866,-2203,-38616,71679,84557,34133, 156007.800, 40.0102746,-105.2441941, 1593.670,1614.998, 5.849,6.317
1721675984.868031,-248,35,1045,4708,-12207,5547
1721675984.877327,-211,100,1043,3273,-8847,1820
1721675984.886623,-117,19,1031,4533,-3063,-2267
1721675984.895919,13,5,1004,7639,2581,-3973
1721675984.905215,75,0,952,9582,5748,-3710
1721675984.914511,72,-81,967,10912,5643,-4060
1721675984.923807,113,122,957,11883,3745,-4297
1721675984.933106,12,-10,965,11699,1286,-3544,,,,84559,34133, 156007.900, 40.0102718,-105.2441924, 1593.335,1614.663, 5.797,6.263
1721675984.942402,-50,-100,987,16179,-1619,-2205
1721675984.951698,-66,-181,1007,18297,-2144,122
1721675984.960994,-67,-102,1024,16809,-1033,2091
1721675984.970290,-118,-33,1029,13423,43,4637
1721675984.979586,-114,20,1006,10728,1531,4838
1721675984.988882,-56,-44,988,10194,4322,3176
1721675984.998178,38,-30,993,11148,7350,542
1721675985.007508,76,-7,1004,11454,9240,-79,-2069,-39398,71105
1721675985.016804,50,-10,1016,12662,8907,1303
1721675985.026100,35,-33,1040,15260,7700,2493
1721675985.035396,5,-198,1048,18498,6641,4147
1721675985.044692,-25,-345,1058,21280,6151,6571
1721675985.053988,37,-226,1077,19417,6982,7271
1721675985.063284,33,-159,1090,13405,8881,7568
1721675985.072580,60,-177,1082,9354,10018,8163
1721675985.081879,174,-211,1080,7438,11060,8557,-1086,-40081,70489,84555,34135, 156008.000, 40.0102709,-105.2441917, 1593.254,1614.582, 5.754,6.221
1721675985.091175,274,-138,1073,5259,11208,9213
1721675985.100471,268,-66,1063,2240,8461,9651
1721675985.109767,190,-35,1068,552,2992,8426
1721675985.119063,117,-105,1071,377,-2179,6370
1721675985.128359,101,-40,1072,700,-5259,6107
1721675985.137655,95,20,1024,70,-6598,6335
1721675985.146951,95,56,977,-43,-7718,4751
1721675985.156250,52,63,971,963,-9004,1015,-1385,-40325,70245,84557,34135, 156008.100, 40.0102684,-105.2441902, 1592.943,1614.271, 5.703,6.159
1721675985.165546,21,-5,1001,3002,-10535,-1260
1721675985.174842,2,-98,1020,5627,-11857,-2512
1721675985.184138,-22,-132,1028,7307,-12880,-2170
1721675985.193434,-20,-84,1007,7578,-13502,-1234
1721675985.202730,-24,-125,1019,7210,-13589,-2818
1721675985.212026,-54,-82,1032,7324,-13528,-8873
1721675985.221322,-143,-180,1052,7622,-13440,-7280
1721675985.230622,-9,-177,1039,7972,-12119,-13318,-2569,-40802,69659,,, 156008.200, 40.0102672,-105.2441892, 1592.669,1613.997, 5.651,6.097
1721675985.239918,36,-109,1005,7945,-9940,-7438
1721675985.249214,55,-142,950,7490,-9949,-4262
1721675985.258510,-36,-122,943,7324,-11262,-4130
1721675985.267806,24,-130,961,7053,-12487,-902
1721675985.277102,53,-186,987,6554,-12285,-902
1721675985.286398,45,-171,1013,4909,-13423,-2853
1721675985.295694,8,-135,1022,2258,-15155,-5592
1721675985.304993,-4,-127,1031,167,-16039,-8952,-4980,-40515,69415,84550,34137
1721675985.314289,-20,-157,1037,-1085,-16083,-14517
1721675985.323585,-1,-43,1024,-2248,-16065,-17247
1721675985.332881,97,203,1072,-4191,-15470,-15663
1721675985.342177,155,190,1033,-5250,-14552,-21254
1721675985.351473,-140,-212,959,-2686,-15540,-48712
1721675985.360769,-422,-193,950,-743,-17124,-60699
1721675985.370065,-409,-174,968,-3421,-14613,-41283
1721675985.379364,-401,-29,917,-4900,-8960,-22934,,,,84556,34150, 156008.300, 40.0102665,-105.2441884, 1592.489,1613.817, 5.595,6.037
1721675985.388660,-208,271,952,-4935,-3509,-8287
1721675985.397956,-36,68,942,-857,1758,4873
1721675985.407252,-64,-169,945,6720,4663,-140
1721675985.416548,-57,-229,980,10378,5083,-1225
1721675985.425844,-41,-203,980,9337,5582,936
1721675985.435140,-2,-142,941,7097,6125,26
1721675985.444436,-59,-177,989,5469,6116,-3098
1721675985.453736,-53,-162,997,4857,5206,-6344,-5145,-40710,69171,84562,34146, 156008.400, 40.0102655,-105.2441870, 1592.281,1613.609, 5.540,5.978
1721675985.463032,-107,-207,978,2739,5775,-7980
1721675985.472328,-63,-15,985,132,6440,-7875
1721675985.481624,-109,0,981,-2625,7822,-10072
1721675985.490920,-194,-110,1030,-1776,8653,-11349
1721675985.500216,-116,-113,1032,-201,10587,-10947
1721675985.509512,94,-138,1008,-1085,14245,-9057
1721675985.518808,47,-119,1017,-2205,15688,-7473
1721675985.528107,99,-47,1016,-3701,14131,-7000,-4992,-40740,69299
1721675985.537403,133,-24,1015,-4812,13466,-7438
1721675985.546699,149,-109,1031,-4138,11996,-8540
1721675985.555995,162,-131,1030,-2677,9485,-8050
1721675985.565291,168,-100,1024,-2878,6291,-6099
1721675985.574587,-17,-73,1060,-2598,2038,-4717
1721675985.583883,0,-147,1035,-1128,-1960,-5662
1721675985.593179,18,-232,1038,333,-2932,-3220
1721675985.602509,29,-295,1000,1085,-2792,2161,-5358,-40289,69458,84556,34150, 156008.500, 40.0102651,-105.2441865, 1592.220,1613.548, 5.492,5.926
1721675985.611805,70,-195,952,-840,-2765,5486
1721675985.621101,13,-183,1068,-4908,-4095,6930
1721675985.630397,-519,72,1197,-9205,-7587,4156
1721675985.639693,-709,371,1247,-13527,-9039,-1523
1721675985.648989,-259,-126,1152,-9266,2222,-5627
1721675985.658285,118,-303,1018,3527,18978,-7289
1721675985.667581,229,-143,948,5609,25733,-3763
1721675985.676880,32,-211,964,385,22522,-3667,-4400,-39916,70031,84555,34155, 156008.600, 40.0102642,-105.2441861, 1591.943,1613.271, 5.427,5.857
1721675985.686176,45,-204,1008,-2450,17185,-6860
1721675985.695472,71,-232,1035,-5442,16196,-6668
1721675985.704768,-75,-241,1127,-8015,16126,-2862
1721675985.714064,-97,-116,1149,-11340,16292,-333
1721675985.723360,25,12,1075,-16196,19451,-2039
1721675985.732656,154,-63,1032,-18322,23091,-4183
1721675985.741952,231,18,1024,-17543,24701,-4848
1721675985.751252,253,20,994,-17412,23380,-3955,,,,84558,34159, 156008.700, 40.0102625,-105.2441849, 1591.676,1613.004, 5.358,5.780
1721675985.760548,257,-47,985,-15233,19363,-2722
1721675985.769844,300,-36,1017,-12451,14000,463
1721675985.779140,219,-80,1069,-10412,8155,5582
1721675985.788436,164,-90,1084,-8785,1837,11891
1721675985.797732,141,-28,1079,-8146,-2870,17570
1721675985.807028,142,-17,1068,-8058,-6659,19836
1721675985.816324,98,40,1037,-7061,-9914,18506
1721675985.825623,71,48,960,-5258,-13580,18068,-3771,-39294,70550,,, 156008.800, 40.0102624,-105.2441848, 1591.512,1612.841, 5.307,5.729
1721675985.834919,113,59,956,-1881,-16564,18453
1721675985.844215,42,-37,996,2284,-19233,20282
1721675985.853511,-29,-32,1016,6572,-22820,22758
1721675985.862807,-102,-28,1033,9407,-25244,25261
1721675985.872103,-139,-159,1014,12872,-26119,26906
1721675985.881399,-223,-163,990,16319,-25017,28945
1721675985.890695,-252,-81,957,15829,-22479,29872
1721675985.899994,-259,-30,935,13353,-18008,25935,-3839,-40527,69641,84554,34157
1721675985.909290,-270,-87,936,11760,-12399,20728
1721675985.918586,-296,-99,944,10282,-6957,13886
1721675985.927882,-271,-63,943,7210,-1540,6011
1721675985.937178,-54,57,908,3719,4252,-1750
1721675985.946474,-15,7,864,2188,8461,-8602
1721675985.955770,-15,-139,877,4804,7420,-10430
1721675985.965066,-147,-283,938,8059,5372,-7805
1721675985.974366,-158,-282,968,8330,5022,-2634,-3338,-40441,69689,84558,34157, 156008.900, 40.0102623,-105.2441851, 1591.352,1612.680, 5.260,5.685
1721675985.983662,-226,-147,1007,5049,8076,1531
1721675985.992958,-274,-66,1023,893,12600,2887
1721675986.002254,-246,-17,1019,-2047,18515,1942
1721675986.011550,-235,-16,979,-3815,25803,-3150
1721675986.020846,-95,-223,905,-3981,32803,-7543
1721675986.030142,163,-277,967,-4593,39795,-11743
1721675986.039438,224,79,1145,-9537,43190,-16433
1721675986.048737,86,141,1038,-14787,39515,-15330,-1464,-40136,70129,84545,34164, 156009.000, 40.0102631,-105.2441849, 1591.264,1612.592, 5.230,5.660
1721675986.058033,30,-165,930,-9572,34527,-14123
1721675986.067329,352,-142,1032,-1898,32497,-15339
1721675986.076625,241,-28,1132,-1382,32655,-13808
1721675986.085921,129,-244,1100,307,28647,-3754
1721675986.095217,210,-256,1098,5530,25943,8487
1721675986.104513,404,-160,1099,5872,25480,14420
1721675986.113809,468,-135,1067,4437,23940,16178
1721675986.123108,648,-233,1083,4489,18340,17500
1721675986.132404,474,-157,1208,6510,10535,21927
1721675986.141700,465,-103,1016,6887,-630,28227
1721675986.150996,261,-2,894,8138,-8278,29662
1721675986.160292,96,82,980,10194,-14298,25970
1721675986.169588,-40,-114,1025,11638,-17824,19503
1721675986.178884,-55,-259,1003,11979,-19495,13256
1721675986.188180,-198,-292,1057,8199,-19600,11427
1721675986.197510,-387,-191,1041,1663,-19679,9887,-689,-40753,69653,84558,34168, 156009.100, 40.0102646,-105.2441854, 1591.237,1612.566, 5.191,5.630
1721675986.206806,-251,-70,976,-5372,-16407,6002
1721675986.216102,-272,78,1036,-10185,-10859,1968
1721675986.225398,-296,95,1023,-12731,-8584,-2380
1721675986.234694,-52,-141,999,-10307,-6817,-8925
1721675986.243990,-58,-231,1078,-5775,-6834,-10395
1721675986.253286,-222,-253,1128,-5503,-10815,-7578
1721675986.262582,-198,-117,1164,-7210,-11130,-5977
1721675986.271882,-110,-50,1185,-9581,-6344,-6204,-1458,-40124,70080,84554,34170, 156009.200, 40.0102640,-105.2441856, 1591.162,1612.490, 5.159,5.598
1721675986.281178,65,-81,1196,-11025,-1645,-9433
1721675986.290474,234,-158,1179,-12582,1242,-15470
1721675986.299770,209,-83,1128,-14568,1618,-17229
1721675986.309066,88,2,1076,-16423,-622,-16564
1721675986.318362,46,-47,1049,-15741,-2363,-16870
1721675986.327658,46,-119,1037,-13282,-2407,-17492
1721675986.336954,-24,-107,1019,-11270,-3229,-14158
1721675986.346253,-73,-81,1007,-10823,-4524,-7368,-2075,-39141,70709,84557,34177, 156009.300, 40.0102645,-105.2441856, 1591.003,1612.331, 5.126,5.563
1721675986.355549,-17,-51,1010,-11278,-4043,-3290
1721675986.364845,-50,-49,1017,-11261,-2774,-1847
1721675986.374141,-5,-71,1010,-10150,-1864,717
1721675986.383437,44,-64,1003,-8916,-140,3981
1721675986.392733,96,-11,975,-7988,1058,5915
1721675986.402029,80,45,962,-7577,682,4978
1721675986.411325,48,-21,939,-6693,-1033,2082
1721675986.420624,106,-71,896,-4515,-2905,-1759,-2471,-38836,70880
1721675986.429920,-114,67,982,-2695,-4787,-3885
1721675986.439216,0,-113,900,-2222,-7587,-2870
1721675986.448512,20,-16,924,-175,-6379,-1925
1721675986.457808,-14,-67,943,-1400,-6423,-3693
1721675986.467104,50,-125,941,-3333,-7210,-8803
1721675986.476400,-148,95,1014,-6378,-7683,-12399
1721675986.485696,90,-132,946,-9415,-8733,-13825
1721675986.494996,167,-177,1004,-8085,-6143,-13405,-3381,-38897,70715,84560,34182, 156009.400, 40.0102661,-105.2441865, 1591.054,1612.382, 5.098,5.529
1721675986.504292,157,105,965,-9056,-6738,-11192
1721675986.513588,88,-49,964,-9660,-9083,-7368
1721675986.522884,19,-12,1007,-5503,-10947,-2310
1721675986.532180,-11,35,993,-1592,-12207,1207
1721675986.541476,-1,19,976,1855,-12434,2861
1721675986.550772,55,-59,978,5128,-11647,1365
1721675986.560068,122,-92,968,7604,-11165,647
1721675986.569367,253,-183,961,8558,-11918,971,,,,84556,34179, 156009.500, 40.0102682,-105.2441876, 1591.192,1612.520, 5.061,5.485
1721675986.578663,233,-172,978,9022,-13335,5320
1721675986.587959,94,-54,1014,8969,-15882,15067
1721675986.597255,-4,0,1074,9678,-17212,25077
1721675986.606551,-141,-86,1096,11883,-16293,31561
1721675986.615847,-171,4,1149,12487,-15112,33591
1721675986.625143,29,-134,1153,9757,-12635,19591
1721675986.634439,90,-373,1182,5907,-10614,14420
1721675986.643738,60,-228,1236,-297,-14333,26031,-3454,-39300,70324,84561,34186, 156009.600, 40.0102708,-105.2441892, 1591.296,1612.624, 5.024,5.436
1721675986.653034,193,-177,1064,-8093,-16783,-3955
1721675986.662330,14,-375,1106,-9598,-16127,1417
1721675986.671626,-88,-292,1062,-9975,-21919,13028
1721675986.680922,-70,-133,1083,-10920,-24623,23467
1721675986.690218,-161,-81,1073,-11908,-24457,32795
1721675986.699514,-89,-90,1058,-12521,-23127,28498
1721675986.708810,-124,-46,1024,-13641,-20073,20020
1721675986.718110,-368,48,987,-17255,-18568,10745,-4095,-38470,70837
1721675986.727406,-199,113,918,-20912,-16652,-1024
1721675986.736702,-111,127,964,-19521,-10518,-6624
1721675986.745998,-205,119,960,-16598,-8050,-7753
1721675986.755294,-303,113,937,-13265,-7097,-1470
1721675986.764590,-337,70,943,-9581,-3684,7070
1721675986.773886,-363,28,968,-5390,1811,14577
1721675986.783182,-293,28,996,-2380,7910,18086
1721675986.792481,-183,-143,978,-507,14901,16870,-2856,-38421,71051,84554,34191, 156009.700, 40.0102731,-105.2441906, 1591.421,1612.749, 4.970,5.376
1721675986.801777,59,-64,969,1050,20352,17010
1721675986.811073,34,-37,932,-1330,21840,15601
1721675986.820369,-61,90,912,-3386,17631,11348
1721675986.829665,-13,150,904,-3220,14743,5713
1721675986.838961,-72,97,920,9,14953,96
1721675986.848257,-9,101,939,4760,14988,-2660
1721675986.857553,2,3,984,8672,16178,-1173
1721675986.866852,69,-317,1019,12530,16782,1321,-2062,-38153,71386,84558,34188, 156009.800, 40.0102754,-105.2441920, 1591.560,1612.888, 4.903,5.308
1721675986.876148,119,-480,1009,14079,15767,4777
1721675986.885444,94,-279,968,6475,13002,5792
1721675986.894740,45,-118,975,-5267,10745,5600
1721675986.904036,114,-146,959,-13002,10228,1330
1721675986.913332,11,-139,966,-16528,10447,-8838
1721675986.922628,-100,126,1034,-19810,9555,-9170
1721675986.931924,-39,87,1051,-22312,8023,-5592
1721675986.941254,79,-11,1025,-20903,8977,-9030,,,,84556,34193, 156009.900, 40.0102789,-105.2441936, 1591.704,1613.032, 4.840,5.243
1721675986.950550,-35,-128,1016,-18777,8470,-6589
1721675986.959846,12,-167,1023,-16905,5810,-3912
1721675986.969142,25,-146,989,-16905,4672,2546
1721675986.978438,61,-152,987,-18383,3360,2047
1721675986.987734,30,-48,978,-19442,1811,2248
1721675986.997030,-2,68,986,-20247,192,3552
1721675987.006326,-59,186,998,-19433,-1007,2922
1721675987.015625,-24,175,1003,-16476,-1252,166,-1928,-36877,72375
1721675987.024921,12,102,1008,-11672,-770,-4962
1721675987.034217,-65,72,952,-7428,-1173,-9258
1721675987.043513,-95,163,984,-4751,-2039,-12749
1721675987.052809,-52,241,940,-3368,-1882,-14560
1721675987.062105,60,-31,879,-157,-1260,-15820
1721675987.071401,4,-17,901,5277,-1934,-12574
1721675987.080697,-55,-29,919,6668,-4200,-8383
1721675987.089997,-59,9,948,8295,-4918,-5093,-2655,-36981,72113,84552,34202, 156010.000, 40.0102806,-105.2441949, 1591.783,1613.111, 4.752,5.147
1721675987.099293,-69,81,977,9293,-4673,-3072
1721675987.108589,-38,15,1010,10824,-4472,-4104
1721675987.117885,-14,2,1038,12478,-4227,-6860
1721675987.127181,45,69,1033,12250,-4892,-7245
1721675987.136477,36,-2,1042,12049,-5968,-7202
1721675987.145773,-1,2,1033,12819,-7770,-8208
1721675987.155069,34,28,1008,12732,-9013,-7613
1721675987.164368,34,37,1005,12557,-9450,-5828,-3570,-37817,71398,84556,34199, 156010.100, 40.0102820,-105.2441960, 1591.930,1613.258, 4.674,5.055
1721675987.173664,-23,64,1005,13397,-10343,-3982
1721675987.182960,-87,90,1022,15138,-11025,-1785
1721675987.192256,-117,37,1059,17597,-11305,-1155
1721675987.201552,-40,-16,1077,20388,-11017,-2065
1721675987.210848,-132,-42,1081,22138,-10955,-1777
1721675987.220144,-67,-26,1052,22462,-12417,-298
1721675987.229440,-94,-52,1020,22418,-13047,78
1721675987.238739,-58,-90,999,22803,-13257,971,-4339,-39147,70092,84555,34204, 156010.200, 40.0102826,-105.2441967, 1591.988,1613.316, 4.614,4.983
1721675987.248035,-47,-87,1004,23835,-12802,2712
1721675987.257331,-71,-66,996,24352,-12784,2896
1721675987.266627,-50,-91,1000,24037,-12294,2388
1721675987.275923,-98,-168,1012,23652,-11270,2310
1721675987.285219,-170,-97,1011,22217,-10780,3552
1721675987.294515,-204,-153,945,19023,-9555,4663
1721675987.303811,-132,-39,1137,15759,-6843,1338
1721675987.313111,-43,-184,1016,11165,-4104,-6397
1721675987.322407,30,-202,1020,10203,-2310,-10807
1721675987.331703,40,-208,1024,8164,-1339,-10964
1721675987.340999,29,-164,1019,5662,-2310,-7753
1721675987.350295,-7,-216,1007,3737,-3378,-4209
1721675987.359591,-66,-244,1025,2267,-4183,-718
1721675987.368887,-60,-199,1032,-323,-5049,1942
1721675987.378183,-110,-114,1022,-4296,-5653,3613
1721675987.387482,-119,-91,1012,-7586,-5845,4576,-4864,-39355,69860,84549,34195, 156010.300, 40.0102838,-105.2441974, 1592.063,1613.391, 4.557,4.912
1721675987.396778,-95,-108,1010,-8977,-4909,2730
1721675987.406074,-83,-94,1015,-10158,-4017,-2197
1721675987.415370,-64,-83,1006,-11646,-3343,-5942
1721675987.424666,-47,-76,1006,-12565,-2590,-8357
1721675987.433962,-63,-67,1009,-13160,-2687,-9310
1721675987.443258,-63,-85,1023,-13475,-3535,-8339
1721675987.452554,-103,-71,1049,-12993,-4148,-6152
1721675987.461853,-194,-22,1077,-12416,-4804,-3745,-5596,-38616,70458,84549,34206, 156010.400, 40.0102855,-105.2441982, 1592.169,1613.497, 4.508,4.852
1721675987.471149,-193,9,1076,-12328,-4533,-3098
1721675987.480445,-226,54,1076,-12258,-2660,-4568
1721675987.489741,-178,11,1066,-12153,-552,-7070
1721675987.499037,-60,-99,1028,-11051,2047,-10194
1721675987.508333,-43,-128,1030,-10911,3080,-9940
1721675987.517629,-8,-187,1027,-12110,1933,-5898
1721675987.526925,-12,-147,1037,-13063,778,-132
1721675987.536225,-137,-16,1056,-14105,-893,4725,-5596,-37658,71008,84549,34215
1721675987.545521,-525,-36,1166,-14428,-2599,9703
1721675987.554817,-286,219,1102,-12958,-1584,16161
1721675987.564113,-167,264,995,-12241,3937,19215
1721675987.573409,-95,165,1012,-9581,6072,4366
1721675987.582705,-145,-53,1043,-4943,5993,-4087
1721675987.592001,-229,-182,1037,-1697,6020,-1995
1721675987.601297,-93,-35,1016,-2537,7490,-2057
1721675987.610596,-70,-141,1000,-5433,9231,-6195,-5468,-37506,71289,,, 156010.500, 40.0102865,-105.2441988, 1592.293,1613.621, 4.481,4.812
1721675987.619892,-8,-114,998,-6370,8916,-7814
1721675987.629188,-16,-58,996,-7481,8093,-4874
1721675987.638484,-82,15,949,-8225,7166,-2923
1721675987.647780,-104,13,914,-9030,6720,-2363
1721675987.657076,-71,-17,926,-8758,7455,-2888
1721675987.666372,-56,25,940,-8041,8601,-1173
1721675987.675668,-69,29,941,-8041,8785,3876
1721675987.684967,-98,8,925,-7945,8242,7638,-4669,-37255,71667,84555,34226, 156010.600, 40.0102854,-105.2441995, 1592.227,1613.556, 4.449,4.770
1721675987.694263,-101,10,947,-7306,8041,8120
1721675987.703559,-98,35,964,-6501,8548,6343
1721675987.712855,-172,92,969,-5328,9073,5600
1721675987.722151,-203,77,994,-3377,9957,5582
1721675987.731447,-159,77,1031,-516,12206,3640
1721675987.740743,-70,71,1058,1392,14892,-2057
1721675987.750039,-16,22,998,1978,16012,-6353
1721675987.759339,38,38,991,2258,15531,-7062,,,,84549,34220, 156010.700, 40.0102859,-105.2441997, 1592.304,1613.632, 4.420,4.730
1721675987.768635,20,19,958,2932,14271,-6939
1721675987.777931,57,52,980,4384,12600,-6659
1721675987.787227,110,68,1031,5609,10745,-3527
1721675987.796523,67,114,1009,7622,8785,3543
1721675987.805819,-82,131,1013,9800,6116,18611
1721675987.815115,-153,-56,987,11918,3718,22172
1721675987.824411,-157,-53,987,14735,3027,15198
1721675987.833710,-63,-54,997,15427,4130,5197,-3942,-37829,71398,84560,34231, 156010.800, 40.0102861,-105.2441999, 1592.316,1613.644, 4.391,4.689
1721675987.843006,66,-7,1008,15112,5188,-3387
1721675987.852302,85,-19,1010,15085,4681,-6694
1721675987.861598,55,-44,987,15733,2695,-6440
1721675987.870894,-17,-150,971,16529,551,-3387
1721675987.880190,-153,-182,973,16984,-1007,2143
1721675987.889486,-309,-178,988,15917,-1304,6895
1721675987.898782,-299,-171,987,13650,-114,8776
1721675987.908112,-178,-43,1039,10815,2878,8680,-3656,-38598,70751
1721675987.917408,-121,7,1128,8007,5556,7577
1721675987.926704,-44,-8,1032,7149,6895,3316
1721675987.936000,-8,5,1070,8173,8575,-1392
1721675987.945296,41,-46,1040,7762,8233,-3745
1721675987.954592,17,-49,1008,7613,6772,-5250
1721675987.963888,-72,-116,1007,7193,5285,-3037
1721675987.973184,-66,58,1011,7070,4523,-1103
1721675987.982453,-24,-27,1032,7210,4795,-3002,-3704,-39123,70379,84565,34235, 156010.900, 40.0102849,-105.2441998, 1592.234,1613.562, 4.356,4.642
1721675987.991749,17,-14,1028,9258,4847,-6965
1721675988.001045,30,-48,1057,10500,4707,-9197
1721675988.010341,61,-131,1028,11332,3928,-10395
1721675988.019637,48,-120,1017,11253,2712,-7587
1721675988.028933,17,-72,1030,9162,1478,-3185
1721675988.038229,-15,-60,1040,7412,-219,1548
1721675988.047525,-16,-35,1035,7263,-2275,5083
1721675988.056824,-37,-66,1022,7945,-3920,7568,-3973,-39587,69891,84557,34240, 156011.000, 40.0102849,-105.2441999, 1592.217,1613.545, 4.320,4.596
1721675988.066120,-53,-24,1070,8829,-5329,7148
1721675988.075416,-49,-82,998,8855,-5968,3430
1721675988.084712,-13,-119,1004,9433,-6537,52
1721675988.094008,38,-129,936,8584,-6222,-1479
1721675988.103304,28,-50,991,6230,-6738,-2162
1721675988.112600,-59,-46,1008,2450,-8917,-245
1721675988.121896,-100,-120,984,1252,-9135,1610
1721675988.131195,-108,-112,1000,3693,-8138,2196
1721675988.140491,-170,-136,1036,4297,-7534,5057
1721675988.149787,-179,-154,1042,3413,-6589,7612
1721675988.159083,-197,-169,1053,1602,-4122,7761
1721675988.168379,-139,-125,1023,-2135,-1444,7017
1721675988.177675,-54,-101,981,-6667,2012,5565
1721675988.186971,-10,-70,964,-9703,4567,5398
1721675988.196267,5,-31,984,-10823,5495,7918
1721675988.205597,-30,16,1015,-10115,5512,12845,-3613,-39477,70123,84557,34240, 156011.100, 40.0102842,-105.2442001, 1592.120,1613.448, 4.286,4.551
1721675988.214893,-67,0,1024,-8618,4690,16887
1721675988.224189,-98,-79,1035,-6536,3955,18427
1721675988.233485,-139,-118,1031,-5022,3438,17946
1721675988.242781,-165,-163,998,-6422,3281,15680
1721675988.252077,-120,-174,1003,-9205,4296,11672
1721675988.261373,-101,-81,1056,-12302,5722,8067
1721675988.270669,-86,19,1072,-14411,7026,7393
1721675988.279969,-57,73,1063,-14446,7525,7376,-2734,-39001,70672,84557,34240, 156011.200, 40.0102829,-105.2441998, 1591.981,1613.309, 4.252,4.507
1721675988.289265,11,31,1062,-12731,7297,4532
1721675988.298561,22,-11,1058,-9887,6142,1321
1721675988.307857,-11,-48,1024,-7516,3412,1225
1721675988.317153,-9,-95,1010,-6422,560,813
1721675988.326449,-4,-149,1005,-7026,-1252,-1199
1721675988.335745,-38,-34,1051,-8828,-1917,-972
1721675988.345041,-72,52,1091,-10806,-1392,892
1721675988.354340,-69,36,1047,-9957,-412,2878,-2734,-38568,70971,84554,34242, 156011.300, 40.0102830,-105.2442001, 1591.905,1613.233, 4.221,4.464
1721675988.363636,-58,63,1084,-6728,866,3220
1721675988.372932,-62,56,1080,-3815,796,4121
1721675988.382228,-74,10,1063,-848,-62,4235
1721675988.391524,-53,-20,1035,1488,-980,2966
1721675988.400820,-5,-45,988,2774,-1050,735
1721675988.410116,34,-90,966,3194,-543,-683
1721675988.419412,15,-81,969,3789,-202,1785
1721675988.428711,-25,3,971,4585,-972,8662,-2349,-39337,70355,,, 156011.400, 40.0102826,-105.2442003, 1591.772,1613.100, 4.189,4.423
1721675988.438007,-116,26,993,6405,-3037,16528
1721675988.447303,-116,6,983,9897,-5154,21822
1721675988.456599,-116,59,967,12504,-6309,21533
1721675988.465895,-116,-41,978,15103,-7018,17648
1721675988.475191,-86,-108,980,16818,-6782,12092
1721675988.484487,-80,-174,977,15313,-5023,5118
1721675988.493783,-57,-187,953,11988,-2722,-674
1721675988.503083,-41,-191,978,8042,-324,-2809,,,,84551,34246
1721675988.512379,-82,-94,1017,4953,682,-1987
1721675988.521675,-123,-52,1027,2407,630,210
1721675988.530971,-90,-111,1037,1497,490,892
1721675988.540267,-72,-167,1016,1077,393,8
1721675988.549563,-34,-243,978,-682,148,-1593
1721675988.558859,10,-236,963,-4051,183,-3842
1721675988.568155,6,-190,934,-8750,288,-4498
1721675988.577454,55,-112,931,-12871,1102,-2135,-2386,-39257,70483,84563,34255, 156011.500, 40.0102815,-105.2442002, 1591.684,1613.012, 4.152,4.380
1721675988.586750,9,-47,937,-14481,2030,3185
1721675988.596046,-5,11,953,-13755,1050,8986
1721675988.605342,-77,15,999,-11340,-368,13982
1721675988.614638,-127,-28,1018,-7936,-2643,17316
1721675988.623934,-77,-104,1046,-5678,-4218,11847
1721675988.633230,-30,-123,1059,-6125,-4130,1688
1721675988.642526,-20,-136,1034,-9161,-3273,-6012
1721675988.651825,-26,-87,1029,-13037,-2914,-8794,-2307,-38568,70983,84559,34257, 156011.600, 40.0102811,-105.2442005, 1591.636,1612.964, 4.107,4.327
1721675988.661121,-111,-2,1017,-16213,-2127,-7210
1721675988.670417,-149,24,1007,-16782,-1462,682
1721675988.679713,-185,-40,1012,-15006,113,8076
1721675988.689009,-127,-41,1028,-12556,148,11401
1721675988.698305,-69,-25,1064,-10788,-298,7350
1721675988.707601,-104,-29,1031,-9756,-770,8
1721675988.716897,-69,-21,997,-10928,-132,-5653
1721675988.726197,-38,41,1004,-12775,1837,-9494,-2111,-38116,71520
1721675988.735493,-32,77,990,-13746,3701,-9267
1721675988.744789,-47,127,1011,-12565,4410,-4279
1721675988.754085,-129,162,1014,-8793,3972,6938
1721675988.763381,-140,122,1023,-2633,2310,18340
1721675988.772677,-123,58,1038,3815,297,17815
1721675988.781973,-106,-86,1029,7954,-1680,6833
1721675988.791269,-129,-106,1096,8077,-1829,-3343
1721675988.800568,-121,-86,1104,4577,-1252,-10334,-2172,-37908,71588,84559,34257, 156011.700, 40.0102804,-105.2442006, 1591.533,1612.861, 4.063,4.273
1721675988.809864,-81,-37,1034,-568,1312,-18402
1721675988.819160,-30,58,897,-5556,4051,-22689
1721675988.828456,-182,177,1162,-7498,5976,-15243
1721675988.837752,-120,54,960,-6028,4488,831
1721675988.847048,-67,-13,1009,963,6711,-202
1721675988.856344,-39,-89,986,4725,6291,-2975
1721675988.865640,-85,-46,1010,6178,4033,-4962
1721675988.874970,-43,-50,999,5084,2423,-9022,-2185,-38336,71307,84555,34257, 156011.800, 40.0102795,-105.2442006, 1591.420,1612.748, 4.026,4.228
1721675988.884266,5,-12,984,2748,3876,-15628
1721675988.893562,-67,101,984,648,4900,-16144
1721675988.902858,-205,127,1024,989,4987,-6300
1721675988.912154,-195,75,1058,4857,5600,5031
1721675988.921450,-31,-71,1062,9862,6973,4103
1721675988.930746,-151,-197,1095,13633,6580,-3238
1721675988.940042,-146,-162,1092,14674,3377,-8593
1721675988.949341,-97,-128,1067,11568,2633,-13817,,,,84565,34266, 156011.900, 40.0102787,-105.2442008, 1591.302,1612.630, 3.992,4.188
1721675988.958637,-31,-124,1034,6747,4042,-20125
1721675988.967933,-28,-49,1031,1444,5145,-19207
1721675988.977229,-51,-1,1047,-2292,6527,-7280
1721675988.986525,14,-24,1057,-3115,7551,6772
1721675988.995821,49,-63,1022,-3062,7341,18340
1721675989.005117,0,-87,957,-2563,5573,21638
1721675989.014413,-7,-104,940,-1225,2546,19075
1721675989.023743,-42,-157,1005,700,962,10841,-1751,-38287,71368
1721675989.033039,-126,-132,1087,1182,183,1023
1721675989.042335,-63,-105,1087,-3360,1338,-9258
1721675989.051631,-57,8,1056,-9852,5171,-16730
1721675989.060927,-54,80,977,-13737,7796,-12618
1721675989.070223,35,86,901,-13055,9598,-5390
1721675989.079519,-26,50,889,-8960,9126,-3203
1721675989.088815,-67,-7,901,-2388,5258,-2722
1721675989.098114,-54,-73,983,4332,822,-1199,-1751,-38220,71527,84602,34271, 156012.000, 40.0102787,-105.2442008, 1591.305,1612.633, 3.963,4.152
1721675989.107410,-84,-44,1067,8917,-1864,78
1721675989.116706,-99,0,1093,8943,-3894,1793
1721675989.126002,-144,93,1061,4515,-3728,4173
1721675989.135298,-130,159,1022,525,-1190,6300
1721675989.144594,-91,122,975,140,3360,4348
1721675989.153890,-62,29,948,2835,7997,-1059
1721675989.163186,-35,-32,948,5373,10990,-6125
1721675989.172486,11,-84,1012,8733,10876,-8855,-1232,-38372,71307,84604,34269, 156012.100, 40.0102785,-105.2442008, 1591.310,1612.638, 3.930,4.111
1721675989.181782,3,-110,1087,11935,9003,-7473
1721675989.191078,-9,-150,1153,13817,6868,-1155
1721675989.200374,-26,-71,1151,11585,3972,3543
1721675989.209670,73,-64,1091,5364,3692,5635
1721675989.218966,13,-64,1050,-1216,4891,7026
1721675989.228262,59,-83,979,-5372,3990,7227
1721675989.237558,129,-132,931,-7236,4453,-482
1721675989.246857,-21,-109,977,-6221,3666,-4017,-1190,-38183,71618,84552,34275, 156012.200, 40.0102782,-105.2442007, 1591.309,1612.637, 3.906,4.078
1721675989.256153,16,-134,995,-4095,-543,-1540
1721675989.265449,-1,-116,1076,-1592,-2468,70
1721675989.274745,-76,-33,1132,-437,-3597,3858
1721675989.284041,-113,60,1091,-2940,-4428,8400
1721675989.293337,-154,81,996,-6833,-3877,8583
1721675989.302633,-79,54,920,-8172,-2380,2467
1721675989.311929,19,-35,883,-7411,507,-7823
1721675989.321228,-16,-50,973,-5521,1907,-14298
1721675989.330524,-121,-18,1021,-2353,700,-9240
1721675989.339820,-114,16,1077,1147,-263,271
1721675989.349116,-178,57,1046,3404,17,8172
1721675989.358412,-174,48,997,2389,-403,9310
1721675989.367708,-130,0,943,-166,1251,2318
1721675989.377004,-86,-13,902,-1863,5057,-5618
1721675989.386300,-45,4,860,-2773,8767,-12373
1721675989.395600,24,-70,882,-2721,11585,-16135,-1086,-38055,71704,84562,34282, 156012.300, 40.0102772,-105.2442003, 1591.223,1612.551, 3.869,4.031
1721675989.404896,-51,-51,957,-280,12792,-12933
1721675989.414192,-84,-32,1001,3378,10972,-1777
1721675989.423488,-75,-77,1093,6475,9108,3858
1721675989.432784,-136,-82,1153,7858,7507,4252
1721675989.442080,-55,-80,1139,4515,7297,1750
1721675989.451376,-27,-96,1073,-1225,8925,-5460
1721675989.460672,108,-155,996,-6168,9222,-13965
1721675989.469971,256,-40,965,-9590,8715,-20729,-628,-37854,71862,84554,34286, 156012.400, 40.0102764,-105.2442001, 1591.107,1612.435, 3.837,3.988
1721675989.479267,177,28,1140,-10972,4900,-10124
1721675989.488563,109,109,1083,-7883,-1103,8478
1721675989.497859,110,101,1118,-148,-4017,21980
1721675989.507155,100,32,1121,5863,-8147,25943
1721675989.516451,96,66,1120,8050,-13650,20737
1721675989.525747,112,95,1075,5950,-18139,7945
1721675989.535043,86,109,1062,4253,-19933,-709
1721675989.544404,81,147,1017,4997,-20029,-5872,-1574,-38616,71105,84553,34289, 156012.500, 40.0102754,-105.2441999, 1591.092,1612.420, 3.808,3.951
1721675989.553700,82,112,951,7280,-19443,-6878
1721675989.562996,62,40,902,11585,-20090,-2109
1721675989.572292,-43,-65,930,17334,-23485,5713
1721675989.581588,-75,-136,994,22864,-27055,13606
1721675989.590884,-220,-87,1064,26058,-27502,16047
1721675989.600180,-312,-41,1078,24352,-27878,12337
1721675989.609476,-333,21,1060,19373,-25839,262
1721675989.618775,-309,-2,1004,13913,-20458,-13720,-2679,-39105,70629
1721675989.628071,-177,-77,989,9275,-14307,-25227
1721675989.637367,-113,-109,977,5102,-8733,-32804
1721675989.646663,-140,-152,971,2039,-4822,-24859
1721675989.655959,-221,-102,986,1225,-2293,-8217
1721675989.665255,-232,-65,1025,1374,-1514,5267
1721675989.674551,-227,-64,1051,1733,-228,11016
1721675989.683847,-206,-129,1073,1409,1548,10176
1721675989.693146,-24,-176,1032,-2178,3176,-1269,,,,84557,34298, 156012.600, 40.0102748,-105.2441999, 1591.053,1612.381, 3.778,3.914
1721675989.702442,84,-201,935,-9073,5197,-19618
1721675989.711738,79,-243,868,-14638,6790,-28972
1721675989.721034,124,-224,838,-18147,6965,-28132
1721675989.730330,141,-154,882,-19853,6055,-19425
1721675989.739626,-47,-53,940,-19591,2940,-2004
1721675989.748922,-330,56,1037,-17666,-1514,22216
1721675989.758218,-306,44,1089,-15653,-3465,34492
1721675989.767518,-212,0,1045,-15435,-1103,24202,-2514,-38116,71368,84556,34295, 156012.700, 40.0102752,-105.2441997, 1591.056,1612.384, 3.744,3.872
1721675989.776814,-139,12,959,-17325,1671,9485
1721675989.786110,-111,81,918,-19048,3797,743
1721675989.795406,3,122,925,-17578,5766,-3859
1721675989.804702,-9,115,936,-13343,6571,-7210
1721675989.813998,-65,130,997,-6991,3876,-2888
1721675989.823294,-185,140,1080,595,1032,7236
1721675989.832590,-161,70,1093,7263,-1173,11392
1721675989.841889,-125,7,1085,9634,-1864,-105,-2655,-37969,71527,84557,34298, 156012.800, 40.0102739,-105.2441997, 1590.884,1612.212, 3.705,3.826
1721675989.851185,-103,43,1046,8278,-1339,-13633
1721675989.860481,-137,151,963,6178,1295,-21604
1721675989.869777,-60,147,903,5417,4707,-26679
1721675989.879073,116,88,926,7210,8671,-31264
1721675989.888369,-28,-9,1053,10798,10552,-23608
1721675989.897665,-181,-107,1176,14009,8715,-980
1721675989.906961,-119,-313,1234,13965,6991,5433
1721675989.916260,-61,-380,1228,10002,6457,-4358,-2880,-37945,71466
1721675989.925556,-21,-327,1172,2687,5705,-12137
1721675989.934852,-99,-207,1127,-4856,4882,-11629
1721675989.944148,-55,-124,1033,-11383,3902,-13274
1721675989.953444,84,-13,930,-15706,5460,-23433
1721675989.962740,106,110,883,-16563,6720,-25962
1721675989.972036,-51,229,883,-13361,5486,-9774
1721675989.981332,-164,229,904,-6676,3255,6501
1721675989.990632,-104,97,959,1558,2353,6396,-3167,-37963,71411,84551,34311, 156012.900, 40.0102720,-105.2441992, 1590.772,1612.100, 3.671,3.789
1721675989.999928,-128,26,1045,8418,3036,-4393
1721675990.009224,-135,-17,1082,11183,2966,-10439
1721675990.018520,-119,-32,1097,10929,3473,-14622
1721675990.027816,-79,-18,1089,9818,4007,-19373
1721675990.037112,-101,98,1050,8042,3850,-22173
1721675990.046408,-82,142,1013,7727,4261,-16337
1721675990.055704,-105,66,981,11069,5250,-3859
1721675990.065003,-57,-44,982,15707,5372,5022,-2984,-38793,70751,84590,34313, 156013.000, 40.0102727,-105.2441994, 1590.756,1612.084, 3.641,3.754
1721675990.074299,17,-117,967,18498,5687,5582
1721675990.083595,58,-169,969,18480,4900,-1007
1721675990.092891,-13,-131,963,16722,2808,-4253
1721675990.102187,-110,-109,948,12994,1636,-3142
1721675990.111483,-140,-22,977,9730,1898,-3789
1721675990.120779,-131,22,1031,8269,3421,-4034
1721675990.130075,-132,-15,1068,8637,5617,-3754
1721675990.139374,-129,-76,1101,8995,7603,-3649,,,,84552,34318, 156013.100, 40.0102725,-105.2441994, 1590.740,1612.068, 3.611,3.718
1721675990.148670,-97,-83,1089,7630,8435,-4848
1721675990.157966,-37,-116,1020,3964,9292,-5662
1721675990.167262,77,-96,967,-26,10097,-5600
1721675990.176558,-70,-7,939,-2835,10290,-368
1721675990.185854,-87,-18,931,-3552,9765,11208
1721675990.195150,56,-101,920,-3246,11576,3946
1721675990.204446,77,-145,933,-3228,13825,-12478
1721675990.213776,-7,-129,991,-3605,13413,-21902,-2813,-38592,71051
1721675990.223072,-37,-130,1041,-4768,11821,-28447
1721675990.232368,36,-175,1038,-6746,11541,-36855
1721675990.241664,30,-130,1061,-9327,10666,-42490
1721675990.250960,-74,-18,1090,-11401,7988,-31544
1721675990.260256,-148,3,1102,-11795,5267,-9590
1721675990.269552,-118,-19,1091,-10771,3981,4935
1721675990.278848,-95,-42,1058,-9992,3517,7971
1721675990.288147,-79,-33,1010,-9861,3683,7796,-2868,-37902,71520,84554,34318, 156013.200, 40.0102726,-105.2441995, 1590.760,1612.088, 3.586,3.687
1721675990.297443,-33,-12,977,-9651,4322,4471
1721675990.306739,4,-9,964,-8706,4830,-1383
1721675990.316035,59,16,964,-6833,5398,-7105
1721675990.325331,97,58,994,-4996,5145,-9783
1721675990.334627,33,106,1052,-2817,3342,-5784
1721675990.343923,-57,126,1092,193,813,7087
1721675990.353219,-92,92,1121,3562,-1208,20772
1721675990.362519,-59,-34,1131,6633,-1777,23835,-2545,-38250,71276,84544,34318, 156013.300, 40.0102721,-105.2441994, 1590.760,1612.088, 3.556,3.650
1721675990.371815,15,-84,1129,8689,-1785,17937
1721675990.381111,32,-80,1113,8715,-2188,11830
1721675990.390407,-49,-34,1083,7875,-4043,8286
1721675990.399703,-96,12,1048,7114,-5530,6641
1721675990.408999,37,-6,1038,7272,-4988,-928
1721675990.418295,45,-9,1057,8208,-4104,-8269
1721675990.427591,-14,17,1067,9083,-5539,-2170
1721675990.436890,-71,25,1071,9800,-7762,5871,-3118,-39068,70556,84554,34329, 156013.400, 40.0102726,-105.2441993, 1590.846,1612.174, 3.519,3.604
1721675990.446186,-89,-17,1073,11393,-8777,10386
1721675990.455482,-33,-13,1032,12889,-9205,9012
1721675990.464778,-21,-4,972,13230,-9512,3482
1721675990.474074,-52,-30,934,13869,-9678,-945
1721675990.483370,-41,-66,928,14718,-9328,-4034
1721675990.492666,-1,-76,933,14587,-8427,-9739
1721675990.501962,-22,-114,958,13904,-7639,-11122
1721675990.511261,-20,-103,984,13239,-7132,-5373
1721675990.520557,-122,-77,1011,12355,-6397,4121
1721675990.529853,-171,-105,1028,11445,-5915,11375
1721675990.539149,-118,-136,1039,10535,-4157,9520
1721675990.548445,-99,-160,1046,9100,-1549,3465
1721675990.557741,-120,-181,1047,6519,280,-823
1721675990.567037,-102,-179,1041,2477,1706,-5058
1721675990.576333,-59,-154,1016,-2397,4165,-11708
1721675990.585633,-85,-104,975,-7481,6475,-16765,-3283,-39111,70428,84552,34327, 156013.500, 40.0102741,-105.2442000, 1591.018,1612.346, 3.484,3.559
1721675990.594929,-81,-49,946,-11077,7901,-17247
1721675990.604225,-53,-22,947,-12293,9327,-15173
1721675990.613521,-75,0,951,-11357,10211,-10185
1721675990.622817,-78,40,963,-9371,9826,-648
1721675990.632113,-78,49,981,-6702,9546,7096
1721675990.641409,-102,21,992,-3447,9493,10972
1721675990.650705,-139,5,993,-708,9406,10622
1721675990.660004,-96,-18,988,919,10333,4173,-2691,-38952,70593,84551,34342, 156013.600, 40.0102748,-105.2442004, 1591.068,1612.396, 3.457,3.527
1721675990.669300,18,-29,984,1908,12171,-6764
1721675990.678596,20,-25,980,2555,13168,-14823
1721675990.687892,-35,-4,983,3212,12267,-15050
1721675990.697188,-14,0,990,4472,11340,-11279
1721675990.706484,12,9,1000,6274,10972,-11244
1721675990.715780,10,-6,1007,8164,9703,-11690
1721675990.725076,-2,-42,1012,9993,8172,-13309
1721675990.734375,-11,-42,1010,10745,7341,-17063,-3198,-39233,70269,84549,34340, 156013.700, 40.0102751,-105.2442003, 1591.139,1612.467, 3.435,3.500
1721675990.743671,18,-65,1006,9713,7297,-22068
1721675990.752967,91,-85,1009,8234,8356,-28062
1721675990.762263,151,-123,1014,6668,9108,-30144
1721675990.771559,166,-144,1027,4629,8181,-28140
1721675990.780855,89,-110,1054,2800,5390,-17763
1721675990.790151,-15,-106,1055,1409,2038,-5303
1721675990.799447,-42,-122,1038,858,-184,481
1721675990.808747,-33,-100,1029,727,-1129,350,-3338,-39123,70147
1721675990.818043,2,-120,1053,770,-1164,-2608
1721675990.827339,59,-132,1034,193,-1103,-5583
1721675990.836635,19,-111,1008,-1557,-1820,-5355
1721675990.845931,-118,-84,992,-2651,-3220,1085
1721675990.855227,-123,-82,985,-2931,-3903,8400
1721675990.864523,-101,-69,992,-2703,-2888,6273
1721675990.873819,-49,-96,997,-2310,-1803,1163
1721675990.883149,-19,-134,1000,-2362,-1260,-2827,,,,84551,34344, 156013.800, 40.0102761,-105.2442009, 1591.218,1612.546, 3.414,3.475
1721675990.892445,1,-167,1007,-2878,-1663,-6685
1721675990.901741,48,-156,1028,-4182,-2188,-8742
1721675990.911037,79,-151,1019,-6055,-2888,-8514
1721675990.920333,48,-128,987,-8146,-4533,-7324
1721675990.929629,8,-69,952,-9546,-6685,-4358
1721675990.938925,-42,-1,946,-9581,-7980,1557
1721675990.948221,-84,38,958,-7778,-8103,8172
1721675990.957520,-124,30,985,-4768,-7167,11383,-3814,-39019,70404,84556,34347, 156013.900, 40.0102771,-105.2442014, 1591.301,1612.629, 3.393,3.451
1721675990.966816,-113,32,1006,-1513,-5548,12048
1721675990.976112,-67,9,1015,613,-3964,8942
1721675990.985408,-52,-6,1034,1934,-2450,3482
1721675990.994704,-55,6,1040,2818,-1435,-1479
1721675991.004000,-36,-4,1036,3089,-735,-5959
1721675991.013296,5,-20,1032,3430,61,-11472
1721675991.022592,-16,-8,1040,4157,8,-15024
1721675991.031891,-13,-22,1041,5128,-1094,-12933,-4199,-39111,70184,,, 156014.000, 40.0102781,-105.2442021, 1591.369,1612.697, 3.372,3.428
1721675991.041187,-39,-31,1046,6143,-1759,-10588
1721675991.050483,-76,-46,1053,6773,-1934,-7744
1721675991.059779,-48,-58,1063,6808,-1540,-4962
1721675991.069075,-39,-45,1072,5898,-727,-3702
1721675991.078371,-50,-34,1063,4769,-263,-1444
1721675991.087667,-41,-67,1039,3920,122,-657
1721675991.096963,-44,-103,1018,3474,726,-2267
1721675991.106293,-26,-116,1001,3168,1190,-3159,-4272,-39379,70043,84554,34349
1721675991.115589,-27,-133,999,2468,1303,-2547
1721675991.124885,-29,-150,1012,1654,1295,-657
1721675991.134181,-5,-159,1018,630,1330,910
1721675991.143477,6,-145,1021,-866,1373,1802
1721675991.152773,-7,-125,1014,-2590,875,3010
1721675991.162069,-30,-109,1007,-4261,140,4296
1721675991.171365,-65,-100,1006,-5416,-105,4908
1721675991.180664,-57,-90,1010,-6247,332,3753,-4132,-39031,70330,84555,34351, 156014.100, 40.0102793,-105.2442026, 1591.425,1612.753, 3.347,3.399
1721675991.189960,-40,-81,1014,-6860,1076,1942
1721675991.199256,-58,-91,1011,-7236,1400,1163
1721675991.208552,-63,-70,1017,-7393,1312,1461
1721675991.217848,-48,-63,1026,-7402,1435,2213
1721675991.227144,-26,-54,1030,-7201,1531,1925
1721675991.236440,-27,-27,1026,-7052,1513,2222
1721675991.245736,-47,-2,1023,-6930,1225,3955
1721675991.255036,-48,5,1019,-6492,1207,5880,,,,84549,34362, 156014.200, 40.0102803,-105.2442032, 1591.467,1612.795, 3.323,3.372
1721675991.264332,-33,7,1021,-5775,1671,7008
1721675991.273628,-5,8,1021,-4926,2152,7227
1721675991.282924,6,6,1023,-4033,2266,6982
1721675991.292220,0,1,1027,-3001,1907,7481
1721675991.301516,-2,-14,1024,-1811,1190,8093
1721675991.310812,16,-25,1023,-638,551,7288
1721675991.320108,6,-38,1024,210,-359,6011
1721675991.329407,9,-51,1015,665,-1164,6755,-3796,-38873,70483,,, 156014.300, 40.0102814,-105.2442039, 1591.525,1612.853, 3.301,3.346
1721675991.338703,-6,-65,1006,770,-1794,6702
1721675991.347999,2,-74,1007,683,-2092,6825
1721675991.357295,12,-56,1009,324,-2450,6238
1721675991.366591,-1,-44,1003,-306,-3063,5486
1721675991.375887,-7,-38,997,-726,-3553,5731
1721675991.385183,-17,-17,996,-822,-3833,4585
1721675991.394479,-33,-5,989,-726,-3929,3885
1721675991.403779,-34,-31,983,-236,-3719,3981,-3735,-39013,70446,84560,34356
1721675991.413075,-53,-25,994,272,-3290,3351
1721675991.422371,-105,-51,1012,377,-2695,4252
1721675991.431667,-134,-59,1007,-297,-1628,3123
1721675991.440963,-87,-92,1004,-1330,271,288
1721675991.450259,-45,-94,1006,-2598,2660,-5180
1721675991.459555,-40,-93,1003,-4313,4392,-8899
1721675991.468851,-8,-101,997,-5705,5372,-11900
1721675991.478150,9,-96,997,-6763,6335,-13720,-3930,-38531,70806,84554,34367, 156014.400, 40.0102818,-105.2442044, 1591.545,1612.873, 3.279,3.320
1721675991.487446,12,-91,1016,-7638,6492,-12688
1721675991.496742,26,-101,1033,-8277,6011,-9634
1721675991.506038,11,-104,1032,-9012,5232,-6878
1721675991.515334,-23,-82,1032,-10395,4383,-4577
1721675991.524630,-5,-71,1030,-11707,3902,-2853
1721675991.533926,-30,-28,1028,-12775,3867,-3133
1721675991.543222,-90,23,1027,-13457,3508,-1225
1721675991.552582,-80,42,1019,-12897,3780,1295,-3814,-37878,71228,84550,34369, 156014.500, 40.0102821,-105.2442049, 1591.598,1612.926, 3.260,3.296
1721675991.561878,-63,57,1017,-11147,4742,656
1721675991.571174,-38,45,1031,-8750,5127,-385
1721675991.580470,-42,40,1054,-6098,5083,-1444
1721675991.589766,-47,24,1055,-4147,4611,-3325
1721675991.599062,-3,-2,1043,-2966,4287,-6370
1721675991.608358,24,-12,1029,-2257,4392,-10255
1721675991.617654,4,-15,1017,-1645,3928,-11734
1721675991.626954,-2,9,1023,-700,3228,-9415,-3985,-37768,71325,,, 156014.600, 40.0102826,-105.2442051, 1591.586,1612.914, 3.240,3.271
1721675991.636250,-29,32,1021,447,2590,-7044
1721675991.645546,-30,16,1028,2074,2441,-2800
1721675991.654842,-32,-1,1024,3859,2038,-123
1721675991.664138,-31,-39,1037,5522,1566,35
1721675991.673434,-17,-75,1048,6712,1443,-2127
1721675991.682730,24,-76,1048,6510,1146,-5539
1721675991.692026,0,-40,1047,4760,1015,-7998
1721675991.701325,-22,-21,1033,3474,1251,-7657,,,,84555,34376
1721675991.710621,-29,9,1021,2932,1776,-7184
1721675991.719917,-43,27,1014,2975,2187,-6703
1721675991.729213,-50,-11,1014,3868,2318,-4822
1721675991.738509,-48,-38,1015,5189,2511,-3964
1721675991.747805,-11,-44,1020,5583,3386,-3885
1721675991.757101,9,-92,1017,5303,4173,-4594
1721675991.766397,91,-111,1013,4620,4707,-7245
1721675991.775696,119,-100,995,2599,4488,-9415,-4113,-37939,71063,84550,34378, 156014.700, 40.0102831,-105.2442055, 1591.587,1612.915, 3.221,3.246
1721675991.784992,52,-75,968,-61,3062,-8182
1721675991.794288,50,-78,980,-1496,1802,-4305
1721675991.803584,23,-56,993,-1811,1295,-1855
1721675991.812880,-1,-65,997,-2135,428,612
1721675991.822176,16,-83,1019,-2196,-105,2642
1721675991.831472,10,-73,1044,-2240,-394,3438
1721675991.840768,7,-49,1039,-3132,-1427,4182
1721675991.850068,3,-28,1027,-4261,-2118,3867,-4211,-37713,71252,84548,34378, 156014.800, 40.0102834,-105.2442055, 1591.580,1612.908, 3.203,3.223
1721675991.859364,5,0,1020,-4926,-2354,2336
1721675991.868660,56,29,1004,-4970,-2179,192
1721675991.877956,37,66,992,-4270,-2162,-1470
1721675991.887252,-19,59,1003,-2511,-3220,-254
1721675991.896548,-82,11,1017,245,-4279,2756
1721675991.905844,-141,-17,1023,2599,-4410,4847
1721675991.915140,-124,8,1037,3255,-4087,5810
1721675991.924439,-48,31,1046,3010,-2967,5285,-4321,-37902,71063
1721675991.933735,-16,40,1049,3203,-2337,4786
1721675991.943031,-17,32,1034,3807,-2739,3692
1721675991.952327,-38,0,1023,5075,-2809,1347
1721675991.961623,1,7,1016,6852,-2494,-945
1721675991.970919,56,-19,999,8400,-2144,-2713
1721675991.980215,93,-24,1004,9879,-2669,-3780
1721675991.989511,81,-34,1015,11253,-4332,-2258
1721675991.998810,90,-37,1026,12460,-6843,-639,-5102,-38903,70263,84554,34387, 156014.900, 40.0102836,-105.2442058, 1591.574,1612.902, 3.185,3.201
1721675992.008106,81,-39,1037,13178,-8969,236
1721675992.017402,59,-46,1039,13694,-10955,-237
1721675992.026698,55,-51,1036,14307,-12828,-1777
1721675992.035994,21,-64,1037,14814,-14420,-2503
1721675992.045290,-63,-53,1036,15068,-15829,-1339
1721675992.054586,-116,-30,1025,14832,-16477,411
1721675992.063882,-137,-41,1012,14578,-15427,551
1721675992.073182,-104,-57,1005,14315,-13257,-1199,,,,84552,34387, 156015.000, 40.0102844,-105.2442062, 1591.625,1612.953, 3.167,3.179
1721675992.082478,-91,-78,1011,13922,-11087,-1042
1721675992.091774,-123,-89,1012,13160,-9590,1400
1721675992.101070,-90,-134,1010,11927,-8313,3482
1721675992.110366,-95,-154,1018,10369,-6545,4086
1721675992.119662,-83,-175,1013,8129,-4927,4690
1721675992.128958,-26,-208,1004,5329,-2923,4261
1721675992.138254,-16,-220,993,1952,-963,3543
1721675992.147553,-55,-192,989,-1977,35,3438,-5432,-39379,69665,84559,34394, 156015.100, 40.0102853,-105.2442066, 1591.671,1612.999, 3.150,3.158
1721675992.156849,-66,-147,994,-5713,1067,3893
1721675992.166145,-52,-115,993,-8785,2546,4313
1721675992.175441,-87,-93,981,-11007,3806,4340
1721675992.184737,-106,-94,978,-11943,4716,4121
1721675992.194033,-75,-104,985,-12075,6177,3123
1721675992.203329,-51,-118,975,-12442,7796,568
1721675992.212625,-38,-162,955,-13046,9003,-2529
1721675992.221985,19,-138,958,-13938,9651,-4489,-4980,-38671,70404
1721675992.231281,25,-56,966,-15443,9686,-3352
1721675992.240577,-20,17,969,-16257,8636,2126
1721675992.249873,-64,42,990,-14910,7262,9913
1721675992.259169,-65,46,1037,-11698,6343,15592
1721675992.268465,-9,-15,1099,-8172,5862,16546
1721675992.277761,32,-91,1157,-5783,5372,14376
1721675992.287057,21,-123,1171,-5906,4095,10981
1721675992.296357,42,-103,1142,-8855,2520,7822,-4400,-38049,71044,84564,34400, 156015.200, 40.0102862,-105.2442071, 1591.729,1613.057, 3.135,3.139
1721675992.305653,31,-53,1092,-12652,1907,4672
1721675992.314949,31,27,1073,-14927,1540,2362
1721675992.324245,6,109,1067,-15067,1233,1758
1721675992.333541,-12,104,1056,-12897,691,3307
1721675992.342837,-20,87,1045,-9458,35,4690
1721675992.352133,-62,6,1029,-6317,-893,5057
1721675992.361429,-51,-57,1017,-4208,-1129,4418
1721675992.370728,-8,-38,995,-4296,262,778,-4187,-37841,71215,84570,34396, 156015.300, 40.0102871,-105.2442076, 1591.772,1613.100, 3.120,3.120
1721675992.380024,-25,15,964,-5608,2686,-4332
1721675992.389320,-64,85,952,-6177,4760,-8033
1721675992.398616,-57,87,941,-5145,6965,-8969
1721675992.407912,-14,62,948,-1732,9607,-8505
1721675992.417208,32,22,986,2879,10648,-6467
1721675992.426504,71,-86,1037,7473,9773,-2739
1721675992.435800,110,-163,1067,10640,7227,297
1721675992.445099,133,-176,1080,9765,4217,1391,,,,84557,34405, 156015.400, 40.0102881,-105.2442081, 1591.748,1613.076, 3.107,3.100
1721675992.454395,87,-137,1078,5749,1828,1863
1721675992.463691,-11,-45,1067,1068,131,3710
1721675992.472987,-42,21,1037,-2248,-70,6116
1721675992.482283,-36,58,1001,-2782,1566,5626
1721675992.491579,-44,32,1001,-726,3115,4445
1721675992.500875,-11,-17,1010,2984,3290,3543
1721675992.510171,8,-93,1013,6292,2283,2003
1721675992.519471,1,-149,1021,7797,787,1688,-3900,-38031,71081
1721675992.528767,-8,-130,1035,6887,-420,1802
1721675992.538063,7,-100,1010,4060,-770,2143
1721675992.547359,-23,-66,985,1409,-359,2397
1721675992.556655,-10,-30,984,-8,-35,3342
1721675992.565951,-7,-21,1009,-131,656,4856
1721675992.575247,-8,-34,1016,709,586,7131
1721675992.584543,33,-59,1004,1287,-254,8233
1721675992.593842,70,-81,998,1304,-1129,7236,-3717,-38220,71057,84555,34407, 156015.500, 40.0102893,-105.2442087, 1591.764,1613.092, 3.090,3.073
1721675992.603138,65,-91,1005,1304,-2529,5591
1721675992.612434,50,-72,1000,849,-4734,4628
1721675992.621730,36,-38,981,-402,-6790,3281
1721675992.631026,14,8,967,-1505,-7744,945
1721675992.640322,-22,53,961,-1312,-7972,-744
1721675992.649618,-37,71,962,237,-8007,-613
1721675992.658914,-35,61,966,2739,-8199,411
1721675992.668213,-26,27,965,5898,-8628,901,-4364,-38421,70623,84551,34416, 156015.600, 40.0102907,-105.2442089, 1591.885,1613.213, 3.075,3.052
1721675992.677509,-36,-24,982,9057,-9188,411
1721675992.686805,-33,-52,994,11279,-9940,-779
1721675992.696101,-3,-81,1004,11804,-10317,-2135
1721675992.705397,-20,-72,1011,11533,-9888,-3037
1721675992.714693,-51,-51,1013,10465,-9617,-1654
1721675992.723989,-59,-46,1028,9363,-8934,1347
1721675992.733285,-95,-14,1048,8943,-7814,3946
1721675992.742585,-108,-24,1056,8908,-6790,6282,-4492,-38989,70214,84552,34411, 156015.700, 40.0102917,-105.2442095, 1591.948,1613.276, 3.061,3.032
1721675992.751881,-74,-64,1046,9118,-5705,7577
1721675992.761177,-45,-109,1037,9188,-4673,7437
1721675992.770473,-36,-146,1043,8698,-4419,7236
1721675992.779769,-65,-164,1048,7228,-4655,7910
1721675992.789065,-75,-164,1043,4367,-4498,8391
1721675992.798361,-72,-170,1016,797,-3010,8662
1721675992.807657,-122,-127,1007,-2450,-797,8120
1721675992.816987,-90,-124,999,-5416,1566,6676,-3906,-38342,70782
1721675992.826283,-54,-152,996,-7525,4418,5398
1721675992.835579,-46,-160,1005,-9458,6186,4112
1721675992.844875,-31,-147,1016,-11655,7008,3683
1721675992.854171,-17,-103,1025,-13886,7297,3290
1721675992.863467,-9,-55,1024,-15960,6772,3438
1721675992.872763,-5,34,1019,-17333,5967,4795
1721675992.882059,-27,75,1006,-17640,5363,6606
1721675992.891419,-45,85,1000,-16222,5145,8303,,,,84576,34418, 156015.800, 40.0102924,-105.2442097, 1591.998,1613.326, 3.052,3.021
1721675992.900715,-65,111,1001,-13650,5241,8531
1721675992.910011,-45,86,1017,-10150,5495,8242
1721675992.919307,9,10,1030,-5748,5390,6448
1721675992.928603,64,-75,1032,-1610,4217,3430
1721675992.937899,69,-100,1061,718,1557,1531
1721675992.947195,62,-117,1061,753,-2214,420
1721675992.956491,35,-117,1051,-1181,-4787,-272
1721675992.965790,0,-49,1031,-4698,-5644,35,-3784,-38092,71142,84577,34425, 156015.900, 40.0102927,-105.2442097, 1592.015,1613.343, 3.043,3.010
1721675992.975086,-47,17,1011,-7813,-4918,1855
1721675992.984382,-59,49,1011,-9336,-3492,2528
1721675992.993678,-55,57,1010,-8653,-1672,1977
1721675993.002974,-58,21,1010,-6168,-193,761
1721675993.012270,-72,-5,1006,-3193,778,-1094
1721675993.021566,-56,-12,999,-1785,1251,-2879
1721675993.030862,-16,-53,992,-1356,2511,-4358
1721675993.040162,-28,-49,1021,-813,3981,-5382,-3662,-37786,71301,84584,34427, 156016.000, 40.0102936,-105.2442100, 1592.075,1613.403, 3.034,2.999
1721675993.049458,-55,19,1020,-1032,4366,-1794
1721675993.058754,0,74,999,-2187,4786,2275
1721675993.068050,68,91,995,-1793,5363,4856
1721675993.077346,112,24,1015,1777,5040,6273
1721675993.086642,127,-73,1017,5994,2196,6116
1721675993.095938,94,-131,1031,7700,-2512,3850
1721675993.105234,6,-140,1081,7210,-7438,2318
1721675993.114533,-69,-102,1104,5102,-10597,1916,-3680,-38146,71124
1721675993.123829,-107,0,1076,1339,-9774,3605
1721675993.133125,-112,93,1013,-1933,-5819,5407
1721675993.142421,-61,88,973,-2695,-779,3797
1721675993.151717,11,-7,953,-621,3963,-1190
1721675993.161013,-17,-116,964,2109,6055,-7018
1721675993.170309,-25,-167,1041,3640,4725,-10203
1721675993.179605,-64,-177,1125,3789,2362,-11647
1721675993.188904,-92,-184,1162,762,717,-8085,-3094,-37646,71520,84544,34423, 156016.100, 40.0102943,-105.2442104, 1592.119,1613.447, 3.025,2.989
1721675993.198200,-46,-154,1123,-5748,1680,-447
1721675993.207496,-44,-5,1051,-13160,4917,8085
1721675993.216792,-55,74,983,-17701,7280,18112
1721675993.226088,20,34,906,-17745,9625,19512
1721675993.235384,52,63,884,-13825,11698,12757
1721675993.244680,96,75,932,-7918,10780,5101
1721675993.253976,103,50,1025,-717,6676,-552
1721675993.263276,91,64,1109,5390,140,-2302,,,,84561,34436, 156016.200, 40.0102948,-105.2442105, 1592.175,1613.503, 3.017,2.978
1721675993.272572,-40,161,1147,7499,-6685,1312
1721675993.281868,-191,248,1172,7298,-10369,11383
1721675993.291164,-227,247,1121,8943,-9380,15863
1721675993.300460,-101,152,1023,12119,-4813,8531
1721675993.309756,-2,54,1002,16030,175,-2949
1721675993.319052,101,-8,995,21210,2275,-9625
1721675993.328348,193,-74,992,25253,1330,-13834
1721675993.337647,156,-95,1002,27353,-3185,-12347,-3350,-38659,70782,84562,34438, 156016.300, 40.0102952,-105.2442107, 1592.204,1613.532, 3.009,2.968
1721675993.346943,75,-140,1052,28473,-9214,-2328
1721675993.356239,15,-173,1070,28394,-13773,8592
1721675993.365535,-47,-174,1024,24500,-15523,11795
1721675993.374831,-121,-151,974,18830,-13458,9887
1721675993.384127,-140,-106,937,14412,-8978,5775
1721675993.393423,-69,-143,913,11209,-3763,-2897
1721675993.402719,-36,-191,917,9713,437,-12670
1721675993.412018,-32,-266,949,8995,1837,-13712,-3680,-39544,70019
1721675993.421314,-18,-357,983,7613,1741,-8969
1721675993.430610,-37,-357,1021,4043,1881,-4095
1721675993.439906,-57,-291,1017,-2415,2117,2073
1721675993.449202,-59,-163,980,-10298,3342,8443
1721675993.458498,-85,-28,948,-16992,5915,11130
1721675993.467794,-56,68,946,-20378,9091,10193
1721675993.477090,-35,97,974,-20081,11882,7962
1721675993.486390,-44,80,1033,-17193,12390,8601,-2532,-38775,70721,84538,34440, 156016.400, 40.0102958,-105.2442110, 1592.253,1613.581, 3.001,2.957
1721675993.495686,-13,36,1058,-13160,11375,12503
1721675993.504982,14,-14,1041,-9791,9957,14673
1721675993.514278,49,-57,1030,-7988,8277,14245
1721675993.523574,118,-38,1029,-7446,6667,11690
1721675993.532870,125,-10,1029,-7918,5267,8540
1721675993.542166,88,52,1030,-7945,3561,6763
1721675993.551462,60,110,1034,-6650,1811,6510
1721675993.560852,63,115,1031,-3526,227,6615,-2777,-38928,70550,84548,34443, 156016.500, 40.0102962,-105.2442111, 1592.282,1613.610, 2.993,2.946
1721675993.570148,55,28,1037,1147,-1602,6378
1721675993.579444,43,-64,1030,6047,-4507,5092
1721675993.588740,-13,-121,1034,9135,-7779,2213
1721675993.598036,-68,-108,1062,9958,-10754,-1724
1721675993.607332,-21,-58,1050,8768,-12522,-7053
1721675993.616628,-60,-9,1065,6974,-12942,-10702
1721675993.625924,-117,45,1042,5539,-12749,-5994
1721675993.635224,-104,31,1015,5233,-11157,-1532,,,,84556,34452, 156016.600, 40.0102962,-105.2442113, 1592.299,1613.627, 2.984,2.934
1721675993.644520,-64,-27,982,6397,-8313,-412
1721675993.653816,-29,-81,958,7805,-6230,-263
1721675993.663112,29,-109,937,8742,-5522,420
1721675993.672408,35,-156,942,8987,-5802,752
1721675993.681704,21,-184,979,8295,-6764,288
1721675993.691000,-38,-188,1018,6064,-7648,-779
1721675993.700296,-57,-130,1035,2669,-8190,-552
1721675993.709595,-88,-67,1025,-848,-6948,70,-3247,-39300,70202
1721675993.718891,-120,-34,1011,-3648,-4314,525
1721675993.728187,-132,-45,996,-4873,-1094,105
1721675993.737483,-96,-51,1029,-4751,1417,-175
1721675993.746779,-85,-78,1020,-4506,3535,-490
1721675993.756075,-44,-101,1016,-4436,4663,-482
1721675993.765371,-15,-112,1035,-4436,5136,1006
1721675993.774667,-4,-126,1065,-4803,4558,4226
1721675993.783966,-24,-107,1062,-5985,3430,6545,-2954,-38867,70550,84558,34452, 156016.700, 40.0102969,-105.2442116, 1592.336,1613.664, 2.975,2.923
1721675993.793262,-35,-83,1034,-8225,3036,6938
1721675993.802558,-60,-35,1015,-10027,3867,4235
1721675993.811854,-92,82,1003,-10517,4803,-263
1721675993.821150,-13,91,987,-9196,6098,-6327
1721675993.830446,42,82,997,-5897,7078,-10728
1721675993.839742,7,79,1018,-1513,5696,-9669
1721675993.849038,6,25,1048,3010,2887,-3842
1721675993.858338,6,-43,1052,7140,428,1190,-3039,-38940,70440,84549,34449, 156016.800, 40.0102969,-105.2442115, 1592.354,1613.682, 2.966,2.913
1721675993.867634,19,-94,1058,9363,-1794,3036
1721675993.876930,54,-109,1061,9328,-3177,2108
1721675993.886226,18,-47,1044,8138,-3894,726
1721675993.895522,-14,12,1018,6650,-4708,183
1721675993.904818,-58,76,1010,6484,-4900,-1427
1721675993.914114,-41,62,1014,8348,-4559,-1330
1721675993.923410,-4,-12,1015,11568,-4174,-657
1721675993.932709,-9,-105,1010,14560,-4437,1890,-3045,-39703,69799,84558,34460, 156016.900, 40.0102972,-105.2442115, 1592.372,1613.700, 2.957,2.903
1721675993.942005,-33,-159,1011,15960,-5522,7122
1721675993.951301,-84,-175,1007,15523,-6720,10963
1721675993.960597,-119,-171,1017,13475,-6948,10683
1721675993.969893,-50,-140,1019,10282,-5443,4558
1721675993.979189,-102,-63,1013,6528,-2827,-1182
1721675993.988485,-137,-60,1021,2905,-849,-1943
1721675993.997781,-58,-111,1019,1068,1715,-5207
1721675994.007081,-11,-149,1017,307,4882,-8357,-2880,-39416,70104
1721675994.016377,-2,-158,1017,-568,6098,-7394
1721675994.025673,20,-161,1019,-1811,5600,-3702
1721675994.034969,21,-149,1026,-3403,4515,-27
1721675994.044265,0,-134,1038,-5346,3447,4138
1721675994.053561,-45,-89,1023,-7787,2931,7656
1721675994.062857,-57,-40,1000,-10307,2992,7673
1721675994.072153,-66,19,987,-11707,3928,3675
1721675994.081452,-60,31,970,-11637,5250,-1409,,,,84552,34460, 156017.000, 40.0102978,-105.2442117, 1592.404,1613.732, 2.948,2.893
1721675994.090748,-30,14,958,-10132,6527,-5294
1721675994.100044,9,-18,967,-7376,7035,-8199
1721675994.109340,30,-19,989,-4401,6195,-8365
1721675994.118636,15,-24,1023,-2012,3963,-5259
1721675994.127932,-1,-44,1055,-341,1680,245
1721675994.137228,-2,-66,1067,210,175,4620
1721675994.146524,0,-67,1056,-87,-508,7052
1721675994.155823,3,-79,1009,-525,-569,6168,-2636,-39300,70245,84551,34469, 156017.100, 40.0102978,-105.2442118, 1592.376,1613.704, 2.940,2.881
1721675994.165119,18,-77,967,-428,-534,1811
1721675994.174415,79,-81,953,709,-657,-4069
1721675994.183711,104,-86,974,2538,-1532,-8969
1721675994.193007,67,-82,1013,3894,-4437,-8147
1721675994.202303,2,-94,1050,4533,-7875,-2162
1721675994.211599,-29,-101,1080,3702,-9975,3657
1721675994.220895,-68,-96,1086,1838,-10360,6965
1721675994.230195,-162,-112,1077,-131,-9783,9318,-3082,-39422,70153,,, 156017.200, 40.0102982,-105.2442116, 1592.407,1613.735, 2.933,2.871
1721675994.239491,-222,-125,1044,-2065,-8400,10386
1721675994.248787,-153,-118,1025,-4042,-5364,5818
1721675994.258083,-113,-70,1025,-5118,-1672,-4008
1721675994.267379,-139,-3,1024,-5477,735,-10273
1721675994.276675,-167,33,1045,-5022,2135,-11559
1721675994.285971,-124,4,1059,-3333,3290,-12574
1721675994.295267,-96,-5,1027,-1960,4681,-14315
1721675994.304566,70,-42,1004,-1960,6037,-14832,-3033,-39196,70257,84564,34474
1721675994.313862,63,-44,990,-1933,7131,-13449
1721675994.323158,38,-27,986,-1916,6860,-7394
1721675994.332454,60,-65,972,-2056,6693,-1715
1721675994.341750,74,-98,971,-1601,6580,1802
1721675994.351046,70,-108,959,-516,6020,5626
1721675994.360342,76,-109,949,945,4488,7096
1721675994.369638,53,-69,972,2555,2240,5206
1721675994.378968,39,-9,1022,4437,-622,2388,-3173,-39672,69885,84553,34469, 156017.300, 40.0102987,-105.2442115, 1592.416,1613.744, 2.925,2.860
1721675994.388264,42,12,1056,6432,-3387,813
1721675994.397560,-9,-1,1066,7832,-5460,848
1721675994.406856,-39,-38,1071,8750,-6720,2905
1721675994.416152,-69,-76,1062,9162,-6992,3640
1721675994.425448,-125,-82,1040,8777,-6589,2686
1721675994.434744,-145,-66,1035,8269,-5723,1776
1721675994.444040,-92,-98,1053,8435,-4332,-219
1721675994.453339,-70,-135,1043,9030,-2984,-1917,,,,84553,34478, 156017.400, 40.0102988,-105.2442114, 1592.395,1613.723, 2.916,2.845
1721675994.462635,-29,-145,1023,8707,-2547,-2223
1721675994.471931,0,-141,994,7359,-2713,-1952
1721675994.481227,8,-105,967,5758,-3334,-849
1721675994.490523,19,-72,952,4323,-3570,1163
1721675994.499819,9,-80,952,3780,-3177,2633
1721675994.509115,-6,-56,969,4069,-2713,4366
1721675994.518411,6,-50,981,4288,-2380,5206
1721675994.527710,15,-56,996,4568,-1960,2948,-3277,-40100,69439,,, 156017.501, 40.0102991,-105.2442113, 1592.372,1613.700, 2.909,2.831
1721675994.537006,29,-77,1006,4708,-1812,-377
1721675994.546302,25,-91,1009,4445,-2214,-3159
1721675994.555598,10,-102,1014,3579,-3045,-3877
1721675994.564894,-123,-93,1040,2380,-4069,-2197
1721675994.574190,-145,-105,1058,1269,-3850,2397
1721675994.583486,-155,-108,1053,429,-1838,5871
1721675994.592782,-120,-109,1039,-595,227,8452
1721675994.602082,0,-132,1007,-2003,2476,8601,-3155,-40118,69415,84557,34487
1721675994.611378,56,-169,980,-3447,4103,6370
1721675994.620674,75,-173,971,-5110,4112,3062
1721675994.629970,133,-149,976,-7157,3088,-753
1721675994.639266,66,-78,988,-9248,1618,-2730
1721675994.648562,-28,-27,1006,-10736,-770,945
1721675994.657858,-47,-53,1021,-11331,-1663,4567
1721675994.667154,-47,-72,1019,-10998,-902,4357
1721675994.676453,-64,-66,1010,-11138,-140,3806,-3057,-39556,69879,84554,34481, 156017.600, 40.0102991,-105.2442111, 1592.338,1613.666, 2.903,2.818
1721675994.685749,-50,-74,1009,-11410,385,3412
1721675994.695045,-15,-115,986,-10858,866,2143
1721675994.704341,45,-106,951,-10071,901,1260
1721675994.713637,110,-112,927,-9091,-202,1295
1721675994.722933,76,-69,939,-7472,-2809,1785
1721675994.732229,8,-18,977,-6098,-6143,4550
1721675994.741525,7,2,1028,-4672,-8540,6746
1721675994.750824,-8,31,1056,-3255,-9617,7350,,,,84552,34492, 156017.700, 40.0102995,-105.2442111, 1592.344,1613.672, 2.897,2.806
1721675994.760120,-62,60,1078,-2038,-10544,9528
1721675994.769416,-103,37,1087,-568,-11122,11996
1721675994.778712,-95,-14,1080,1199,-10483,11112
1721675994.788008,-56,-47,1072,2582,-8873,6720
1721675994.797304,-3,-66,1050,3203,-7359,577
1721675994.806600,28,-50,1029,3360,-7070,-4918
1721675994.815896,27,-6,1003,3212,-7823,-6677
1721675994.825226,-8,14,986,3509,-9135,-6047,-3387,-39550,69903,,, 156017.800, 40.0102996,-105.2442110, 1592.367,1613.695, 2.892,2.797
1721675994.834522,-49,-6,988,4717,-10194,-3334
1721675994.843818,-49,-98,976,6195,-10387,-709
1721675994.853114,-149,-95,975,6720,-9949,288
1721675994.862410,-121,-137,972,5670,-9100,2563
1721675994.871706,-110,-183,980,4909,-6642,2231
1721675994.881002,-142,-174,1012,4104,-4585,2397
1721675994.890298,-141,-148,1045,2827,-3159,1776
1721675994.899598,-143,-115,1067,1392,-1952,43,-3820,-39788,69543,84547,34489
1721675994.908894,-138,-102,1080,18,-1033,-1120
1721675994.918190,-109,-93,1089,-1085,192,-1917
1721675994.927486,-89,-98,1086,-2546,1242,-1899
1721675994.936782,-97,-104,1071,-4331,2213,-1663
1721675994.946078,-52,-137,1033,-6116,3456,-2529
1721675994.955374,50,-171,972,-7630,5101,-4787
1721675994.964670,121,-192,927,-8531,5976,-5425
1721675994.973969,131,-176,894,-8898,4620,-622,-3692,-39373,69897,84559,34496, 156017.900, 40.0103000,-105.2442110, 1592.388,1613.716, 2.885,2.785
1721675994.983265,91,-137,906,-8820,1785,7446
1721675994.992561,13,-90,942,-8505,-1497,14700
1721675995.001857,-49,-34,989,-8155,-4060,18138
1721675995.011153,-97,65,1006,-8163,-5250,17150
1721675995.020449,-60,72,1010,-8391,-4822,12538
1721675995.029745,-59,85,1018,-8058,-2967,6300
1721675995.039041,-89,91,1026,-7113,-1497,315
1721675995.048340,-111,75,1027,-5880,-342,-5740,-3778,-39166,70141,84553,34496, 156018.000, 40.0103004,-105.2442109, 1592.411,1613.739, 2.878,2.772
1721675995.057636,-110,40,1036,-3771,901,-10133
1721675995.066932,-96,13,1039,-1190,1513,-10912
1721675995.076228,-58,-70,1033,1339,1338,-8147
1721675995.085524,-36,-158,1026,3273,428,-2477
1721675995.094820,-39,-196,1027,3544,-945,3517
1721675995.104116,-74,-156,1020,2022,-2162,7166
1721675995.113412,-115,-91,1009,-358,-3010,9441
1721675995.122712,-119,-57,1010,-1916,-3168,9493,-3839,-39086,70104
1721675995.132008,-76,-52,1005,-2240,-2485,8041
1721675995.141304,-50,-88,999,-1925,-1663,6195
1721675995.150600,-51,-121,1014,-1837,-1602,3631
1721675995.159896,-78,-76,1040,-2450,-1995,78
1721675995.169192,-40,-31,1064,-3421,-2022,-6650
1721675995.178488,-13,-27,1078,-3946,-1759,-13502
1721675995.187784,-24,-55,1082,-3596,-2118,-12504
1721675995.197113,-19,-100,1090,-2948,-3098,-5145,-4235,-38793,70245,84551,34507, 156018.100, 40.0103008,-105.2442109, 1592.436,1613.764, 2.870,2.759
1721675995.206409,-37,-136,1085,-2485,-4358,2205
1721675995.215705,-58,-138,1076,-2721,-5495,5993
1721675995.225001,-104,-90,1074,-3701,-6370,6256
1721675995.234297,-97,-33,1064,-4821,-6948,2808
1721675995.243593,-40,8,1036,-5617,-6852,-3772
1721675995.252889,-49,55,1020,-5521,-6563,-7674
1721675995.262185,-148,106,1033,-4471,-6922,-4585
1721675995.271454,-228,103,1051,-2738,-6790,1697,,,,84557,34507, 156018.200, 40.0103014,-105.2442110, 1592.479,1613.807, 2.859,2.746
1721675995.280750,-231,44,1060,-533,-5347,3928
1721675995.290046,-186,-22,1045,1365,-2625,2388
1721675995.299342,-141,-70,1013,2153,78,-569
1721675995.308638,-91,-80,1011,2074,2327,-3203
1721675995.317934,-99,-55,1019,1803,4138,-4927
1721675995.327230,-72,-58,1022,1182,5285,-7280
1721675995.336526,-18,-59,1030,315,6221,-9389
1721675995.345826,76,-123,1026,-192,6851,-7639,-4199,-38928,70306,84557,34518, 156018.300, 40.0103018,-105.2442108, 1592.480,1613.808, 2.849,2.733
1721675995.355122,96,-163,1019,-1137,6177,367
1721675995.364418,-15,-130,998,-3167,3990,14227
1721675995.373714,-132,-80,967,-5608,1995,23686
1721675995.383010,-176,-25,938,-7218,2240,21577
1721675995.392306,-175,38,930,-7560,4567,10193
1721675995.401602,-154,89,956,-6063,7463,-2967
1721675995.410898,-129,82,1004,-2800,9520,-11962
1721675995.420197,-111,43,1053,1435,10062,-15418,-3662,-39007,70312
1721675995.429493,-53,-25,1085,5049,9388,-13633
1721675995.438789,-5,-78,1080,7184,8251,-8287
1721675995.448085,-14,-89,1035,7455,6273,-1514
1721675995.457381,-6,-95,998,6834,4156,3272
1721675995.466677,-4,-97,984,6834,2843,4060
1721675995.475973,43,-209,994,7167,1610,4261
1721675995.485269,-73,-115,978,6852,70,3508
1721675995.494568,-32,-16,966,5102,-1829,2082,-3918,-39440,70001,84557,34521, 156018.400, 40.0103024,-105.2442110, 1592.520,1613.848, 2.840,2.721
1721675995.503864,-20,15,945,4577,-1943,-1129
1721675995.513160,-69,42,939,5434,-2809,-1733
1721675995.522456,-46,23,953,7035,-3597,-3745
1721675995.531752,-93,16,976,9109,-3177,-7333
1721675995.541048,-88,8,1000,10719,-2608,-10518
1721675995.550344,-76,-31,1020,12294,-1322,-13545
1721675995.559640,-105,-93,1074,13642,-263,-15584
1721675995.568940,-83,-127,1097,14429,-394,-13615,-4248,-40124,69274,84557,34521, 156018.500, 40.0103031,-105.2442112, 1592.583,1613.911, 2.831,2.709
1721675995.578236,-49,-141,1086,14210,-1357,-10649
1721675995.587532,-76,-125,1072,13537,-2993,-5259
1721675995.596828,-103,-123,1047,12609,-4778,1820
1721675995.606124,-127,-137,1029,11717,-5767,8050
1721675995.615420,-106,-152,1017,10920,-5889,9660
1721675995.624716,-168,-18,1037,9940,-5443,7621
1721675995.634012,-108,-78,1013,8750,-4725,1015
1721675995.643311,-44,-95,1018,8505,-2564,-7578,,,,84543,34521, 156018.600, 40.0103034,-105.2442113, 1592.547,1613.875, 2.822,2.698
1721675995.652607,-69,-76,1026,8103,-1120,-9424
1721675995.661903,-129,-53,1022,7350,-980,-7517
1721675995.671199,-92,-51,1015,6650,-455,-7560
1721675995.680495,-78,-44,1000,6213,1163,-9188
1721675995.689791,-85,-33,994,6029,2423,-8890
1721675995.699087,-92,-48,1002,6012,3333,-7447
1721675995.708383,-105,-114,1015,6283,4331,-6248
1721675995.717682,-127,-118,1022,6003,5442,-3325,-4541,-40496,68884
1721675995.726978,-136,-121,1023,4874,6571,-3325
1721675995.736274,-96,-123,1024,3737,8023,-6143
1721675995.745570,-49,-130,1028,2800,9327,-8663
1721675995.754866,-40,-145,1043,2197,9563,-7534
1721675995.764162,-82,-119,1056,1785,8338,-3255
1721675995.773458,-85,-91,1035,1269,6553,1347
1721675995.782754,-154,12,1037,1094,5556,4270
1721675995.792084,-144,61,1037,1488,5355,6545,-4107,-40728,68725,84546,34525, 156018.700, 40.0103034,-105.2442113, 1592.531,1613.859, 2.815,2.688
1721675995.801380,-121,-15,995,3518,5818,8146
1721675995.810676,-67,-27,1006,5688,7183,1338
1721675995.819972,-43,-35,1006,7298,8303,61
1721675995.829268,-23,-92,997,8943,8408,-1803
1721675995.838564,16,-127,985,10325,7682,-4393
1721675995.847860,43,-116,966,10973,6580,-6825
1721675995.857156,-26,-110,977,11349,4663,-8007
1721675995.866456,-125,-96,1027,11848,2406,-6878,-4089,-41351,68206,84556,34534, 156018.800, 40.0103040,-105.2442115, 1592.552,1613.880, 2.808,2.678
1721675995.875752,-29,-193,1065,12320,1225,-4472
1721675995.885048,-17,-249,1055,12189,1417,-4270
1721675995.894344,-73,-227,1053,10238,805,-1645
1721675995.903640,-75,-186,1034,7315,472,1295
1721675995.912936,-92,-131,1014,5049,621,988
1721675995.922232,-111,-96,1007,3562,1006,-9
1721675995.931528,-127,-99,999,3089,1811,-2310
1721675995.940827,-109,-125,991,2905,3115,-6108,-3857,-41479,68072,84558,34534, 156018.900, 40.0103044,-105.2442116, 1592.568,1613.896, 2.802,2.670
1721675995.950123,-118,-117,995,2547,4523,-9205
1721675995.959419,-110,-110,990,1890,5661,-9380
1721675995.968715,-86,-106,981,1304,6903,-7473
1721675995.978011,-77,-105,972,1050,8233,-3273
1721675995.987307,-61,-84,969,1033,9353,892
1721675995.996603,-18,-109,980,1182,10193,2966
1721675996.005899,-18,-106,987,1593,10561,1671
1721675996.015198,-4,-116,1009,1593,10316,-1217
1721675996.024494,-5,-137,1041,1689,9948,-7420
1721675996.033790,-8,-139,1064,1610,9161,-11962
1721675996.043086,15,-162,1076,893,7988,-14018
1721675996.052382,3,-191,1080,-43,6956,-12924
1721675996.061678,-14,-153,1104,-1365,5530,-7193
1721675996.070974,38,-179,1042,-3185,3736,210
1721675996.080270,123,-227,1019,-4103,2511,2922
1721675996.089570,148,-280,981,-4847,971,7507,-3717,-41375,68139,84550,34536, 156019.000, 40.0103051,-105.2442117, 1592.599,1613.927, 2.797,2.663
1721675996.098866,148,-313,943,-6195,-1759,11838
1721675996.108162,132,-284,935,-8312,-4795,12836
1721675996.117458,85,-208,926,-10762,-7587,12241
1721675996.126754,49,-131,931,-13151,-9783,10150
1721675996.136050,26,-92,923,-14647,-10929,7218
1721675996.145346,-9,-33,917,-15155,-11402,6326
1721675996.154642,-55,1,925,-14822,-12049,9590
1721675996.164002,-96,-49,948,-13072,-12530,14078,-3735,-40844,68505,84560,34543, 156019.100, 40.0103053,-105.2442117, 1592.585,1613.913, 2.792,2.656
1721675996.173298,-53,-103,951,-10438,-12460,16590
1721675996.182594,-41,-149,922,-8715,-12338,17675
1721675996.191890,-28,-222,919,-8085,-12933,17911
1721675996.201186,-6,-239,955,-8137,-13642,16528
1721675996.210482,-25,-215,978,-9677,-14079,13020
1721675996.219778,18,-155,988,-12153,-14193,8907
1721675996.229074,3,-52,974,-14595,-13808,5862
1721675996.238373,-98,39,986,-15960,-13965,4882,-4150,-40277,69018,84556,34545, 156019.200, 40.0103056,-105.2442116, 1592.610,1613.938, 2.788,2.651
1721675996.247669,-159,74,1021,-15435,-13537,5390
1721675996.256965,-207,58,1040,-13090,-11927,3815
1721675996.266261,-203,18,1058,-10158,-10107,2292
1721675996.275557,-191,-11,1057,-7630,-8322,1951
1721675996.284853,-142,-75,1042,-6055,-6782,1505
1721675996.294149,-74,-153,1042,-5153,-5014,665
1721675996.303445,-121,-136,1042,-5600,-3667,2143
1721675996.312745,-56,-163,1032,-7586,-2433,3150,-4321,-39697,69384
1721675996.322041,10,-158,1029,-9310,-604,-928
1721675996.331337,-10,-111,1026,-11112,52,-3789
1721675996.340633,-14,-91,1029,-12643,-254,-4524
1721675996.349929,-38,-80,1043,-12705,-692,-2835
1721675996.359225,-70,-81,1064,-12320,-1330,-193
1721675996.368521,-81,-106,1072,-11830,-1952,2380
1721675996.377817,-94,-83,1071,-11488,-2337,4733
1721675996.387116,-154,-62,1058,-11611,-2888,5451,,,,84550,34559, 156019.300, 40.0103058,-105.2442116, 1592.582,1613.910, 2.784,2.645
1721675996.396412,-175,-43,1055,-11646,-2905,2668
1721675996.405708,-139,-41,1037,-11077,-1768,-1444
1721675996.415004,-99,-52,1001,-10115,-228,-6580
1721675996.424300,-78,-55,984,-8977,560,-9258
1721675996.433596,-60,-60,990,-7402,945,-8190
1721675996.442892,-87,-50,1011,-5503,735,-5207
1721675996.452188,-54,-87,1030,-3657,192,-1470
1721675996.461487,-77,-68,1038,-2047,-298,2240,-4534,-39355,69818,84554,34556, 156019.400, 40.0103060,-105.2442116, 1592.573,1613.901, 2.780,2.640
1721675996.470783,-80,-45,1028,-1618,-1278,4515
1721675996.480079,-103,-11,1035,-1478,-1549,3902
1721675996.489375,-128,25,1029,-1128,-1628,2458
1721675996.498671,-183,329,1001,-673,-1217,8
1721675996.507967,-136,102,1022,674,-2879,-2564
1721675996.517263,-181,-12,1024,3999,-1269,-2354
1721675996.526559,13,-151,1018,6510,3613,-6659
1721675996.535859,-33,-122,1023,7560,5573,-8707,-4553,-39508,69732,84558,34568, 156019.500, 40.0103061,-105.2442116, 1592.558,1613.886, 2.775,2.634
1721675996.545155,-114,-65,1050,6362,3920,-4428
1721675996.554451,-169,-20,1068,5495,2528,-3124
1721675996.563747,-132,-15,1056,5268,2730,-4542
1721675996.573043,-143,9,1054,5347,3946,-4594
1721675996.582339,-134,13,1039,5557,4690,-1418
1721675996.591635,-28,-42,1021,6222,5416,2266
1721675996.600931,23,-63,1002,6965,6055,5600
1721675996.610230,45,-111,967,6790,5442,7673,-4309,-39849,69451
1721675996.619526,124,-163,937,6047,4313,5932
1721675996.628822,95,-132,925,4795,3202,1898
1721675996.638118,59,-96,921,3255,910,-560
1721675996.647414,38,-74,938,2398,-1252,-2800
1721675996.656710,18,-91,950,2468,-2652,-4349
1721675996.666006,2,-132,963,3080,-3544,-3124
1721675996.675302,-45,-182,982,3745,-4577,1951
1721675996.684601,-76,-222,993,3509,-5845,8785,-4467,-39874,69329,84553,34563, 156019.600, 40.0103062,-105.2442116, 1592.546,1613.874, 2.772,2.629
1721675996.693897,-123,-227,1000,2127,-6677,13352
1721675996.703193,-183,-193,1012,88,-7088,13650
1721675996.712489,-175,-152,1019,-2108,-6755,10290
1721675996.721785,-159,-119,1009,-4025,-5653,4786
1721675996.731081,-124,-123,981,-5608,-4717,-543
1721675996.740377,-87,-129,971,-6956,-4034,-2730
1721675996.749673,-84,-123,973,-8093,-3675,-2284
1721675996.758973,-53,-134,969,-9520,-3544,-1514,-4724,-39239,70025,84557,34572, 156019.700, 40.0103062,-105.2442118, 1592.496,1613.824, 2.768,2.625
1721675996.768269,-48,-90,959,-11401,-3369,122
1721675996.777565,-98,-23,953,-13326,-3553,2493
1721675996.786861,-121,46,960,-14525,-3430,2983
1721675996.796157,-82,48,979,-14376,-2573,262
1721675996.805453,-43,15,999,-13203,-1050,-3597
1721675996.814749,-23,-22,995,-11690,236,-4332
1721675996.824045,-59,-14,997,-10412,770,-3002
1721675996.833405,-100,-2,989,-9747,-158,-1847,,,,84547,34570, 156019.800, 40.0103062,-105.2442118, 1592.499,1613.827, 2.766,2.622
1721675996.842701,-88,-9,989,-8636,-1435,-2302
1721675996.851997,-102,12,990,-6973,-2450,-2074
1721675996.861293,-140,9,1001,-5127,-3859,35
1721675996.870589,-123,-39,1031,-2940,-5189,2423
1721675996.879885,-85,-85,1043,-875,-5872,3526
1721675996.889181,-110,-75,1021,105,-6335,3841
