;Title, http://www.gcdataconcepts.com, LSM6DSM, BMP384, GPS
;Version, 2585, Build date, Feb  9 2024,  SN:CCDC2023B942042
;Start_time, 2024-07-22, 19:18:33.125
;Uptime, 5,sec,  Vbat, 4086, mv, EOL, 3500, mv
;Deadband, 0, counts
;DeadbandTimeout, 0.000,sec
;BMP384, SI, 0.100,sec, Units, Pa, mdegC
;Alt Trigger disabled
;LSM6DSM, SR,104,Hz, Units, mG, mdps, fullscale gyro 250dps, accel 4g
;Magnetometer, SR,10,Hz, Units, nT, Temperature, 34,degC
;CAM_M8 Gps, SR,10,Hz
;Gps Sats, TOW, 155929219, ver, 1, numSat, 21
;, gnssId, svId, cno, elev, azmith, prRes, flags,inUse
;, GPS, 005, 00, 01, 070, 0, 0x00001910
;, GPS, 008, 00, 02, 327, 0, 0x00001210
;, GPS, 010, 00, 37, 267, 0, 0x00001910
;, GPS, 013, 00, 15, 040, 0, 0x00001910
;, GPS, 015, 00, 43, 054, 0, 0x00001910
;, GPS, 016, 00, 08, 275, 0, 0x00001910
;, GPS, 018, 00, 71, 084, 0, 0x00001910
;, GPS, 023, 00, 68, 306, 0, 0x00001910
;Time, Ax, Ay, Az, Gx, Gy, Gz, Mx, My, Mz, P, T, TOW, Lat,Lon, Height(m), MSL(m), hdop(m), vdop(m)
1721675913.187285,120,54,987,3833,-2879,9511,28356,24542,77331,84577,36380, 155931.200, 40.0102698,-105.2442291, 1594.661,1615.989, 4442.106,3141.043
1721675913.196539,139,63,986,-3211,3876,-455
1721675913.205793,144,77,992,-2660,3106,-639
1721675913.215047,144,72,1004,-1916,1828,1146
1721675913.224301,147,49,1019,-1006,621,4978
1721675913.233555,123,35,1035,-140,-665,8662
1721675913.242809,85,31,1047,482,-2153,10167
1721675913.252063,54,15,1050,805,-3500,8802
1721675913.640992,48,9,1048,832,-4130,5285,28076,24273,77404,84574,36385
1721675913.650242,58,-4,1045,779,-4323,1295
1721675913.659492,68,-16,1045,543,-4419,-2127
1721675913.668742,67,-25,1048,-43,-4664,-4752
1721675913.677992,53,-36,1053,-1163,-5180,-6729
1721675913.687242,33,-40,1055,-2310,-5740,-7735
1721675913.696492,10,-47,1053,-3552,-6090,-7447
1721675913.705742,-5,-48,1046,-4882,-6134,-6764
1721675913.714997,-23,-47,1037,-6265,-5697,-7377,28234,24505,77313,84572,36376
1721675913.724247,-25,-30,1035,-7551,-5005,-8960
1721675913.733497,-9,3,1036,-8820,-3964,-11454
1721675913.742747,10,29,1037,-9905,-2967,-15190
1721675913.751997,34,52,1036,-10500,-2433,-18104
1721675913.761247,66,66,1032,-10570,-2398,-18944
1721675913.770497,95,72,1024,-10158,-2844,-18025
1721675913.779747,105,82,1017,-9283,-3763,-15488
1721675913.789002,93,96,1010,-8120,-5084,-11017,,,,84572,36385
1721675913.798252,76,97,1011,-6553,-6344,-5985
1721675913.807502,58,98,1015,-4716,-7193,-1733
1721675913.816752,47,73,1014,-3001,-7770,1093
1721675913.826002,53,55,1009,-1330,-7875,2003
1721675913.835252,62,57,1003,53,-7797,1627
1721675913.844502,54,59,996,980,-7849,1023
1721675913.853752,45,62,990,1733,-8059,1321
1721675913.863037,33,72,991,2057,-8164,2485,27691,24462,77612
1721675913.872287,18,72,992,2284,-8330,3307
1721675913.881537,-5,64,989,2477,-8392,4243
1721675913.890787,-23,67,988,2678,-8182,5565
1721675913.900037,-39,54,986,2774,-7420,6466
1721675913.909287,-57,34,980,3133,-6292,5888
1721675913.918537,-68,31,979,3457,-4909,4567
1721675913.927787,-77,24,982,3544,-3317,2310
1721675913.937043,-68,16,984,3719,-1750,-945,27539,24029,77868,84577,36378
1721675913.946293,-50,11,989,3737,-289,-4804
1721675913.955543,-22,15,997,3439,822,-8908
1721675913.964793,10,29,1005,2774,1601,-11830
1721675913.974043,23,37,1015,2214,1522,-11848
1721675913.983293,17,35,1027,2100,901,-8252
1721675913.992543,13,28,1042,2065,131,-3999
1721675914.001793,6,25,1057,1908,-342,-1549
1721675914.011048,-8,21,1067,1610,-788,-1260,27685,23663,77990,84576,36383, 155935.000, 40.0102698,-105.2442291, 1594.661,1615.989, 154.409,109.183
1721675914.020298,-15,11,1069,1444,-1269,-2004
1721675914.029548,-15,4,1062,1260,-1217,-2573
1721675914.038798,-12,7,1055,989,-875,-3334
1721675914.048048,0,14,1052,604,-447,-3859
1721675914.057298,14,24,1048,298,-88,-4262
1721675914.066548,26,30,1041,-140,8,-3982
1721675914.075798,34,34,1030,-428,-210,-2678
1721675914.085053,32,33,1025,-367,-735,-998,27532,23474,78149,84573,36378, 155935.100, 40.0102698,-105.2442291, 1594.661,1615.989, 154.846,109.493
1721675914.094303,31,36,1026,-323,-1584,735
1721675914.103553,12,29,1028,-288,-2450,2371
1721675914.112803,-10,21,1029,-105,-3535,2861
1721675914.122053,-32,17,1027,-35,-4384,2012
1721675914.131303,-43,17,1023,-78,-4804,691
1721675914.140553,-35,17,1018,-236,-4717,-1199
1721675914.149803,-20,20,1010,-402,-4297,-3168
1721675914.159119,-14,18,1005,-332,-4025,-4367,,,,,, 155935.200, 40.0102698,-105.2442291, 1594.661,1615.989, 155.334,109.838
1721675914.168369,-4,20,1003,-175,-3912,-4437
1721675914.177619,4,13,1004,-52,-3815,-3990
1721675914.186869,4,6,1007,377,-3947,-2520
1721675914.196119,-3,-2,1016,499,-3912,-762
1721675914.205369,-23,-9,1033,525,-3877,936
1721675914.214619,-43,-22,1046,237,-3684,2380
1721675914.223869,-56,-26,1052,-183,-3413,2336
1721675914.233155,-62,-18,1054,-883,-2835,472,27355,23382,78314,84573,36380
1721675914.242405,-59,-5,1053,-1785,-2065,-1689
1721675914.251655,-42,8,1047,-2651,-1129,-3124
1721675914.260905,-28,26,1041,-3368,-359,-3955
1721675914.270155,-10,41,1031,-3762,78,-4515
1721675914.279405,2,49,1020,-3771,271,-4542
1721675914.288655,10,61,1010,-3605,385,-3649
1721675914.297905,15,68,1006,-3080,87,-2319
1721675914.307160,9,72,1004,-2423,-377,-534,27416,23590,78405,84569,36378, 155935.300, 40.0102698,-105.2442291, 1594.661,1615.989, 155.872,110.218
1721675914.316414,6,59,1006,-1758,-884,1006
1721675914.325668,7,48,1010,-1032,-1243,2275
1721675914.334922,9,44,1013,-332,-1628,2572
1721675914.344176,4,38,1016,333,-2065,1916
1721675914.353430,3,39,1015,858,-2389,1592
1721675914.362684,-5,28,1015,1374,-2599,1548
1721675914.371938,-11,27,1015,1917,-2879,1102
1721675914.381195,-18,24,1019,2284,-2914,918,27233,23394,78479,,, 155935.400, 40.0102698,-105.2442291, 1594.661,1615.989, 156.459,110.633
1721675914.390449,-18,15,1021,2652,-2818,787
1721675914.399703,-12,5,1022,2818,-2582,1015
1721675914.408957,-16,0,1022,2958,-2415,1767
1721675914.418211,-27,4,1024,2870,-2372,1951
1721675914.427465,-26,4,1029,2643,-2275,1863
1721675914.436719,-16,8,1035,2494,-1969,1583
1721675914.445973,-7,16,1039,2293,-1742,420
1721675914.455200,7,20,1040,2083,-1663,-805,27050,22888,78643,84576,36385
1721675914.464450,8,23,1043,1943,-1873,-1287
1721675914.473700,5,20,1044,1733,-2179,-1479
1721675914.482950,5,14,1041,1724,-2564,-1348
1721675914.492200,7,2,1033,1715,-2949,-753
1721675914.501450,-7,-8,1025,1628,-3142,-62
1721675914.510700,-29,-13,1024,1427,-3439,682
1721675914.519950,-39,-12,1023,1199,-3544,1260
1721675914.529206,-43,-10,1026,770,-3255,1041,26928,22772,78729,84572,36383, 155935.500, 40.0102698,-105.2442291, 1594.661,1615.989, 157.095,111.083
1721675914.538456,-41,-5,1028,315,-2905,43
1721675914.547706,-36,0,1024,-105,-2485,-1059
1721675914.556956,-28,8,1021,-280,-2267,-2722
1721675914.566206,-21,14,1020,-516,-2004,-4524
1721675914.575456,-12,16,1020,-682,-1882,-5845
1721675914.584706,-3,20,1020,-787,-1908,-6397
1721675914.593956,-3,22,1017,-901,-2127,-6344
1721675914.603211,3,25,1014,-980,-2424,-5758,,,,84574,36383, 155935.600, 40.0102698,-105.2442291, 1594.661,1615.989, 157.779,111.567
1721675914.612461,5,21,1013,-1067,-2477,-4533
1721675914.621711,-3,18,1016,-1050,-2792,-3124
1721675914.630961,-14,16,1019,-1146,-3089,-1768
1721675914.640211,-22,14,1025,-1330,-3229,-1094
1721675914.649461,-31,17,1033,-1671,-3142,-1383
1721675914.658711,-34,13,1033,-1960,-3124,-2127
1721675914.667961,-26,9,1031,-2030,-2993,-2669
1721675914.677246,-15,7,1033,-2161,-2783,-3159,26831,22705,78826,,, 155935.700, 40.0102698,-105.2442291, 1594.661,1615.989, 158.510,112.084
1721675914.686496,-12,6,1035,-2196,-2695,-3282
1721675914.695746,-21,4,1037,-2170,-2695,-2363
1721675914.704996,-35,5,1042,-2143,-2800,-1252
1721675914.714246,-48,10,1043,-2056,-2704,-884
1721675914.723496,-56,8,1044,-1898,-2363,-1523
1721675914.732746,-56,-1,1043,-1680,-1750,-2625
1721675914.741996,-51,-5,1046,-1531,-1015,-3719
1721675914.751252,-45,-10,1050,-1601,-167,-4857,26800,22625,78900,84578,36383
1721675914.760502,-40,-11,1051,-1732,568,-5775
1721675914.769752,-32,-10,1047,-1855,1330,-5749
1721675914.779002,-15,-3,1041,-1890,2082,-5320
1721675914.788252,-5,10,1032,-1916,2668,-4962
1721675914.797502,-8,20,1024,-1881,3071,-4489
1721675914.806752,-10,32,1016,-1618,3255,-3798
1721675914.816002,-8,41,1010,-1400,3368,-3623
1721675914.825257,-1,48,1009,-1251,3622,-4174,27148,22485,78765,84579,36380, 155935.800, 40.0102698,-105.2442291, 1594.661,1615.989, 159.289,112.634
1721675914.834507,1,50,1005,-1050,3631,-4787
1721675914.843757,0,46,1003,-883,3386,-4673
1721675914.853007,0,46,1006,-673,2782,-4515
1721675914.862257,4,38,1007,-621,2266,-4655
1721675914.871507,13,24,1010,-796,2187,-4043
1721675914.880757,21,15,1018,-735,1662,-2625
1721675914.890007,23,7,1024,-971,1015,-1103
1721675914.899353,19,0,1023,-1373,245,43,27105,22583,78692,84570,36372, 155935.900, 40.0102698,-105.2442291, 1594.661,1615.989, 160.113,113.217
1721675914.908603,8,-6,1025,-1741,-683,498
1721675914.917853,-9,-5,1028,-2231,-1567,218
1721675914.927103,-18,-11,1033,-2983,-2100,-674
1721675914.936353,-17,-22,1038,-3771,-2275,-1392
1721675914.945603,-13,-27,1043,-4558,-2275,-2083
1721675914.954853,-13,-23,1044,-5451,-2232,-2800
1721675914.964103,-21,-7,1046,-6326,-2293,-3894
1721675914.973358,-33,5,1047,-7131,-2267,-4717,,,,,, 155936.000, 40.0102698,-105.2442291, 1594.661,1615.989, 160.983,113.832
1721675914.982608,-33,13,1043,-7595,-2232,-5189
1721675914.991858,-30,24,1035,-7735,-1899,-5443
1721675915.001108,-29,38,1028,-7726,-1584,-5670
1721675915.010358,-20,48,1022,-7472,-1147,-6038
1721675915.019608,-20,54,1013,-6921,-814,-6187
1721675915.028858,-23,56,1007,-6291,-552,-5994
1721675915.038108,-22,54,1006,-5661,-88,-5775
1721675915.047486,-18,47,1002,-4996,542,-5242,27178,22851,78613,84575,36376
1721675915.056736,-8,51,1000,-4217,1058,-4244
1721675915.065986,-6,58,999,-3683,1452,-3614
1721675915.075236,-4,63,1002,-3185,1732,-3229
1721675915.084486,5,63,1004,-2485,1916,-2188
1721675915.093736,22,60,1008,-1592,2021,-814
1721675915.102986,32,59,1013,-700,1855,280
1721675915.112236,29,60,1014,158,1461,1120
1721675915.121369,21,47,1018,1147,770,1557,27282,22906,78546,84572,36376, 155936.100, 40.0102698,-105.2442291, 1594.661,1615.989, 161.898,114.479
1721675915.130623,13,34,1026,2205,26,2003
1721675915.139877,4,26,1031,2993,-455,2038
1721675915.149131,-1,10,1032,3457,-770,1478
1721675915.158385,-6,1,1036,3579,-945,560
1721675915.167639,-5,-6,1039,3404,-1138,-315
1721675915.176893,-4,-13,1042,2888,-1269,-1225
1721675915.186147,2,-14,1038,2162,-1505,-2197
1721675915.195404,3,-6,1040,1339,-1742,-2827,27197,22814,78753,84573,36369, 155936.200, 40.0102698,-105.2442291, 1594.661,1615.989, 162.857,115.157
1721675915.204654,-4,-2,1035,412,-2337,-2888
1721675915.213904,-10,-2,1029,-455,-2932,-2643
1721675915.223154,-15,2,1027,-1321,-3387,-2704
1721675915.232404,-19,13,1020,-2152,-3649,-3002
1721675915.241654,-25,18,1018,-3010,-3763,-3360
1721675915.250904,-30,16,1019,-3788,-3737,-3614
1721675915.260154,-26,20,1017,-4497,-3623,-3824
1721675915.269409,-21,30,1023,-5320,-3360,-4437,26983,23040,78759,,, 155936.300, 40.0102698,-105.2442291, 1594.661,1615.989, 163.859,115.866
1721675915.278659,-13,34,1026,-5941,-3194,-4813
1721675915.287909,0,35,1029,-6501,-3063,-4690
1721675915.297159,12,38,1034,-7026,-3115,-4367
1721675915.306409,13,43,1043,-7428,-3395,-3990
1721675915.315659,1,37,1046,-7586,-4060,-4218
1721675915.324909,-2,38,1049,-7752,-4787,-4157
1721675915.334159,-1,35,1044,-7918,-5110,-4095
1721675915.343415,4,35,1043,-8006,-5145,-4927,26678,23327,78656,84581,36378
1721675915.352665,11,43,1049,-8233,-5040,-4699
1721675915.361915,4,43,1062,-8400,-5049,-3290
1721675915.371165,14,53,1063,-8338,-5215,-1864
1721675915.380415,20,39,1048,-8163,-5294,61
1721675915.389665,-14,52,1038,-7796,-5548,1478
1721675915.398915,-23,70,1026,-7726,-5723,2257
1721675915.408165,-39,68,1030,-7551,-5303,3570
1721675915.417450,-35,56,1022,-6982,-4717,4506,,,,84577,36376, 155936.400, 40.0102698,-105.2442291, 1594.661,1615.989, 164.903,116.604
1721675915.426700,-21,46,1020,-6448,-3938,5643
1721675915.435950,-8,46,1012,-6177,-3247,6063
1721675915.445200,-12,50,1012,-6133,-3308,5311
1721675915.454450,-35,52,1009,-6028,-3929,3508
1721675915.463700,-48,55,1009,-5993,-4629,1557
1721675915.472950,-36,56,1018,-6011,-4725,-132
1721675915.482200,-28,59,1032,-5836,-4297,-2013
1721675915.491455,-11,48,1034,-5600,-3684,-3168,26232,23846,78692,84573,36380, 155936.500, 40.0102698,-105.2442291, 1594.661,1615.989, 165.989,117.372
1721675915.500705,-12,42,1027,-5223,-3072,-2538
1721675915.509955,-35,52,1028,-4856,-2757,-1392
1721675915.519205,-42,60,1028,-4970,-2363,-1182
1721675915.528455,-38,62,1031,-4733,-1978,-1365
1721675915.537705,-24,67,1032,-4611,-1462,-1120
1721675915.546955,-5,64,1037,-4453,-1042,-298
1721675915.556205,1,68,1039,-4243,-937,586
1721675915.565461,3,68,1040,-4270,-1182,1225,26049,24145,78546,,, 155936.600, 40.0102698,-105.2442291, 1594.661,1615.989, 167.116,118.169
1721675915.574711,2,68,1038,-4182,-1462,1540
1721675915.583961,-15,62,1034,-4191,-1882,910
1721675915.593211,-11,62,1025,-4086,-2284,-18
1721675915.602461,-14,56,1011,-4103,-2162,-683
1721675915.611711,-27,47,1004,-4077,-2030,-963
1721675915.620961,-34,48,1005,-4051,-1934,-175
1721675915.630211,-41,59,1012,-4130,-1593,1452
1721675915.639466,-42,59,1014,-4305,-1173,2738,25903,24566,78601,84573,36367
1721675915.648716,-47,50,1019,-4252,-744,4033
1721675915.657966,-44,43,1029,-4147,-447,4952
1721675915.667216,-45,31,1038,-4217,-228,4436
1721675915.676466,-55,35,1045,-4620,-123,1916
1721675915.685716,-63,38,1043,-5153,-27,-700
1721675915.694966,-65,37,1035,-5346,192,-2652
1721675915.704216,-65,36,1027,-5416,665,-3842
1721675915.713501,-64,36,1024,-5573,1426,-4708,26147,24847,78277,84576,36374, 155936.700, 40.0102698,-105.2442291, 1594.661,1615.989, 168.283,118.994
1721675915.722751,-49,39,1027,-5827,2266,-4988
1721675915.732001,-40,38,1031,-6160,2957,-4393
1721675915.741251,-23,47,1030,-6615,3386,-3719
1721675915.750501,-10,55,1027,-7052,3447,-2765
1721675915.759751,-4,67,1025,-7507,3298,-1278
1721675915.769001,-9,80,1026,-7945,2835,385
1721675915.778251,-6,83,1026,-8111,2065,857
1721675915.787506,-6,84,1026,-8190,1443,96,26129,25567,78118,84575,36367, 155936.800, 40.0102698,-105.2442291, 1594.661,1615.989, 169.489,119.847
1721675915.796756,-7,92,1021,-8251,673,-1225
1721675915.806006,-8,100,1015,-8251,-105,-2564
1721675915.815256,-7,115,1015,-8190,-849,-3667
1721675915.824506,-5,118,1011,-7883,-1540,-3439
1721675915.833756,-4,118,998,-7227,-2048,-1768
1721675915.843006,-9,110,985,-6282,-2485,52
1721675915.852256,-19,103,980,-5075,-2757,2187
1721675915.861512,-36,100,977,-3753,-2739,3867,,,,,, 155936.900, 40.0102698,-105.2442291, 1594.661,1615.989, 170.733,120.727
1721675915.870762,-48,96,981,-2458,-2337,4427
1721675915.880012,-60,96,985,-1093,-1619,4296
1721675915.889262,-74,100,990,132,-700,3771
1721675915.898512,-78,112,990,1112,385,2668
1721675915.907762,-89,122,995,2127,1583,1513
1721675915.917012,-94,127,1007,3404,2835,700
1721675915.926262,-75,112,1010,4690,4313,472
1721675915.935547,-46,94,1012,5740,5941,-245,26165,25445,78228,84579,36367
1721675915.944797,-28,83,1016,6405,7113,-525
1721675915.954047,-19,76,1023,6913,7665,936
1721675915.963297,-21,65,1030,7149,7936,2537
1721675915.972547,-16,59,1036,7132,8023,3500
1721675915.981797,-12,60,1036,6887,7953,3815
1721675915.991047,-7,62,1035,6493,7612,3211
1721675916.000297,-7,64,1031,5994,7192,2415
1721675916.009552,5,65,1026,5627,6816,1172,26635,25219,78204,84579,36378, 155937.000, 40.0102698,-105.2442291, 1594.661,1615.989, 172.015,121.633
1721675916.018802,12,68,1025,5434,6396,70
1721675916.028052,22,75,1027,5268,5792,-718
1721675916.037302,29,78,1029,5198,5040,-552
1721675916.046552,35,74,1026,5303,4121,0
1721675916.055802,31,69,1025,5557,3045,245
1721675916.065052,26,64,1023,5758,1846,595
1721675916.074302,21,59,1021,5749,743,1120
1721675916.083557,14,50,1020,5863,-193,1916,26599,24902,78253,84578,36372, 155937.100, 40.0102698,-105.2442291, 1594.661,1615.989, 173.334,122.565
1721675916.092807,3,46,1020,5784,-840,2677
1721675916.102057,-12,39,1018,5574,-1295,3211
1721675916.111307,-18,40,1015,5145,-1540,3246
1721675916.120557,-30,48,1014,4533,-1523,2310
1721675916.129807,-40,44,1011,4130,-1549,1225
1721675916.139057,-40,41,1010,3745,-1400,883
1721675916.148307,-39,50,1006,3439,-1155,1356
1721675916.157563,-41,54,1008,3124,-814,1977,26501,24707,78405
1721675916.166813,-39,55,1012,2984,-674,2117
1721675916.176063,-32,55,1016,2818,-578,2152
1721675916.185313,-26,54,1017,2792,-560,2318
1721675916.194563,-26,55,1015,2372,-193,2283
1721675916.203813,-32,56,1014,2284,-350,1898
1721675916.213063,-33,59,1012,2118,-447,1111
1721675916.222313,-25,58,1009,1890,-219,43
1721675916.231598,-12,54,1006,1847,61,-1313,,,,84578,36365, 155937.200, 40.0102698,-105.2442291, 1594.661,1615.989, 174.688,123.523
1721675916.240848,-1,48,1003,1855,280,-1689
1721675916.250098,0,43,1001,1847,148,-1147
1721675916.259348,-4,46,1006,1628,-35,-499
1721675916.268598,-11,53,1008,1392,-324,-62
1721675916.277848,-20,58,1006,1339,-770,245
1721675916.287098,-27,61,1005,1357,-1050,533
1721675916.296348,-29,65,1007,1453,-1120,813
1721675916.305603,-24,69,1009,1680,-1190,883,26452,24377,78454,84570,36354, 155937.300, 40.0102698,-105.2442291, 1594.661,1615.989, 176.078,124.506
1721675916.314853,-22,70,1016,1978,-1234,595
1721675916.324103,-16,71,1021,2232,-1287,245
1721675916.333353,-14,60,1024,2547,-1444,-280
1721675916.342603,-3,53,1033,2940,-1532,-884
1721675916.351853,10,40,1043,3282,-1785,-840
1721675916.361103,0,31,1046,3247,-2039,-350
1721675916.370353,-3,25,1046,2975,-2442,131
1721675916.379608,-16,21,1046,2625,-2800,551,26269,24224,78643,,, 155937.400, 40.0102698,-105.2442291, 1594.661,1615.989, 177.501,125.512
1721675916.388858,-27,31,1048,1917,-3028,8
1721675916.398108,-40,35,1048,998,-2958,-604
1721675916.407358,-45,39,1045,307,-2678,-779
1721675916.416608,-40,42,1043,-131,-2275,-630
1721675916.425858,-45,46,1043,-507,-1654,-797
1721675916.435108,-48,47,1039,-866,-1120,-1322
1721675916.444358,-48,44,1036,-1085,-307,-1785
1721675916.453644,-47,41,1030,-1172,411,-1969,26251,24169,78594,84577,36376
1721675916.462894,-43,45,1026,-1233,1085,-1978
1721675916.472144,-39,49,1022,-1417,1750,-2197
1721675916.481394,-39,50,1016,-1470,2292,-2354
1721675916.490644,-37,54,1009,-1452,2651,-2092
1721675916.499894,-31,63,1001,-1505,3088,-2100
1721675916.509144,-24,73,995,-1618,3386,-2135
1721675916.518394,-20,78,992,-1487,3535,-1803
1721675916.527649,-15,81,992,-1207,3482,-1138,26531,24157,78546,84573,36361, 155937.500, 40.0102698,-105.2442291, 1594.661,1615.989, 178.958,126.542
1721675916.536899,-10,82,993,-857,3500,-525
1721675916.546149,-4,76,1000,-420,3500,-114
1721675916.555399,0,69,1009,105,3403,17
1721675916.564649,4,65,1021,587,3062,-44
1721675916.573899,8,55,1029,945,2625,35
1721675916.583149,6,49,1034,1365,2161,507
1721675916.592399,2,51,1034,1645,1653,551
1721675916.601654,-5,75,1027,1908,1041,-27,26611,23815,78607,84576,36361, 155937.600, 40.0102698,-105.2442291, 1594.661,1615.989, 180.448,127.596
1721675916.610904,-22,129,1022,2118,656,-1024
1721675916.620154,-37,133,1017,2722,533,-2232
1721675916.629404,-39,110,1017,4095,612,-3518
1721675916.638654,-18,104,1016,5434,735,-4069
1721675916.647904,3,99,1012,6300,971,-4603
1721675916.657154,18,90,1010,7097,770,-5758
1721675916.666404,30,77,1009,7727,218,-7079
1721675916.675690,41,68,1010,8234,-464,-7219,,,,,, 155937.700, 40.0102698,-105.2442291, 1594.661,1615.989, 181.969,128.672
1721675916.684940,40,64,1015,8619,-1383,-5609
1721675916.694190,36,72,1022,8908,-2372,-2547
1721675916.703440,11,98,1024,9109,-3422,1531
1721675916.712690,-22,100,1023,9538,-4349,5136
1721675916.721940,-56,111,1017,10194,-4778,7805
1721675916.731190,-71,122,1016,10912,-4550,9388
1721675916.740440,-53,92,1018,11953,-3877,9852
1721675916.749695,18,106,1022,13090,-2984,10141,26226,23071,78936,84570,36354
1721675916.758945,-11,-23,1035,13825,-2547,7113
1721675916.768195,-31,-85,1049,14158,-2932,-175
1721675916.777445,-55,-109,1060,13178,-2923,3631
1721675916.786695,-38,-81,1059,11367,-2617,6912
1721675916.795945,-37,-70,1058,9249,-1925,5687
1721675916.805195,-57,-55,1055,7438,-1602,-1680
1721675916.814445,-47,14,1051,5845,-1252,-8698
1721675916.823700,-24,29,1044,4699,-525,-10623,26177,22375,79180,84579,36367, 155937.800, 40.0102698,-105.2442291, 1594.661,1615.989, 183.521,129.769
1721675916.832950,9,-8,1038,4778,78,-7797
1721675916.842200,66,64,1029,5102,113,-4209
1721675916.851450,-1,-16,1029,4962,-543,-5110
1721675916.860700,-12,-10,1021,4944,-1558,-13720
1721675916.869950,-24,5,1021,5119,-1882,-2004
1721675916.879200,-120,3,1040,5224,-2004,8662
1721675916.888450,-95,-4,1035,5539,-1505,11970
1721675916.897766,-76,-73,1026,5705,105,19075,25994,22229,79412,84577,36356, 155937.900, 40.0102698,-105.2442291, 1594.661,1615.989, 185.104,130.888
1721675916.907020,-60,-89,1019,5215,1277,15907
1721675916.916274,-51,-93,1014,3535,2152,5171
1721675916.925528,-38,-81,1013,1584,2642,-6528
1721675916.934782,-6,-72,1019,-227,3106,-13484
1721675916.944036,5,-69,1026,-1627,3482,-15602
1721675916.953290,12,-91,1024,-2642,3211,-13895
1721675916.962544,21,-106,1025,-3701,2870,-10413
1721675916.971802,15,-93,1026,-5145,2432,-6939,26354,22369,79296,,, 155938.000, 40.0102698,-105.2442291, 1594.661,1615.989, 186.716,132.028
1721675916.981052,-11,-48,1030,-6685,1872,-5452
1721675916.990302,-31,-15,1027,-7892,1408,-4673
1721675916.999552,-40,6,1025,-8435,1400,-3964
1721675917.008802,-49,17,1025,-8662,1811,-2748
1721675917.018052,-54,37,1027,-8513,2336,-2039
1721675917.027302,-29,44,1025,-8233,2922,-2389
1721675917.036552,-12,33,1023,-7673,3447,-3247
1721675917.045807,-7,19,1019,-7017,3578,-3597,26641,22631,79028,84573,36356
1721675917.055057,0,13,1023,-6431,3368,-3763
1721675917.064307,-4,26,1024,-6055,3185,-4025
1721675917.073557,0,40,1019,-5810,2957,-4682
1721675917.082807,4,50,1015,-5337,2738,-4944
1721675917.092057,16,59,1014,-4742,2572,-4043
1721675917.101307,3,61,1018,-4033,2178,-2695
1721675917.110557,11,53,1019,-3403,1828,-1742
1721675917.119812,-2,48,1024,-2808,1688,-543,,,,84575,36369, 155938.100, 40.0102698,-105.2442291, 1594.661,1615.989, 188.356,133.188
1721675917.129066,-7,36,1026,-2345,1426,-429
1721675917.138320,-10,36,1027,-1942,1198,-665
1721675917.147574,-8,26,1026,-1802,1102,-1847
1721675917.156828,6,6,1027,-1820,1085,-3754
1721675917.166082,17,4,1030,-1907,1006,-4542
1721675917.175336,15,2,1032,-2126,603,-4472
1721675917.184590,10,0,1032,-2546,157,-4052
1721675917.193848,-2,-9,1030,-2983,-175,-2835,26812,22454,78973,84574,36363, 155938.200, 40.0102698,-105.2442291, 1594.661,1615.989, 190.025,134.368
1721675917.203098,-16,-11,1026,-3360,-534,-1304
1721675917.212348,-24,-7,1024,-3841,-727,183
1721675917.221598,-11,9,1023,-4453,-543,936
1721675917.230848,-17,15,1024,-4803,-263,87
1721675917.240098,-26,12,1022,-4803,-132,-1628
1721675917.249348,-16,18,1023,-4795,-9,-1812
1721675917.258598,-5,25,1022,-4978,306,-1462
1721675917.267853,3,32,1020,-5101,376,-1427,26806,22717,78918,,, 155938.300, 40.0102698,-105.2442291, 1594.661,1615.989, 191.721,135.567
1721675917.277103,4,53,1019,-5013,218,-814
1721675917.286353,-3,54,1013,-4725,-35,490
1721675917.295603,-11,55,1010,-4095,-184,2502
1721675917.304853,-20,57,1010,-3342,-202,4191
1721675917.314103,-21,61,1010,-2458,-35,3885
1721675917.323353,-9,50,1013,-1531,262,2380
1721675917.332603,8,21,1016,-595,665,1076
1721675917.341858,24,9,1021,-70,822,-9,26818,22784,78894,84574,36363
1721675917.351108,25,7,1021,97,665,-1050
1721675917.360358,25,14,1023,-87,183,-2555
1721675917.369608,13,16,1023,-393,-167,-3133
1721675917.378858,-14,-2,1023,-595,-438,-2984
1721675917.388108,-23,5,1026,-848,-438,-1899
1721675917.397358,-25,19,1033,-1233,-70,-1654
1721675917.406608,-19,40,1035,-1522,367,-3352
1721675917.415863,-8,61,1033,-1496,735,-4305,26934,22778,78918,84578,36354, 155938.400, 40.0102698,-105.2442291, 1594.661,1615.989, 193.443,136.785
1721675917.425113,-10,61,1030,-1076,971,-3422
1721675917.434363,-11,51,1029,-393,1076,-1164
1721675917.443613,-12,41,1032,53,1207,875
1721675917.452863,-9,28,1034,254,1260,1828
1721675917.462113,-15,24,1031,70,1181,1951
1721675917.471363,-17,17,1026,-288,1076,1391
1721675917.480613,-15,14,1023,-866,1015,148
1721675917.489899,-17,16,1022,-1452,953,-1287,,,,84577,36358, 155938.500, 40.0102698,-105.2442291, 1594.661,1615.989, 195.191,138.021
1721675917.499149,-8,20,1023,-1855,866,-2380
1721675917.508399,6,34,1021,-2275,770,-3413
1721675917.517649,22,42,1016,-2467,315,-4375
1721675917.526899,15,29,1012,-2651,-88,-4183
1721675917.536149,7,20,1013,-2598,-797,-2135
1721675917.545399,-2,15,1013,-2738,-1278,393
1721675917.554649,-5,20,1013,-2992,-1628,918
1721675917.563935,-11,29,1012,-3246,-1890,70,26983,22784,78820,,, 155938.600, 40.0102698,-105.2442291, 1594.661,1615.989, 196.964,139.275
1721675917.573185,-14,42,1011,-3403,-2127,-604
1721675917.582435,-17,47,1011,-3368,-2153,-412
1721675917.591685,-16,52,1010,-2940,-2074,498
1721675917.600935,-8,50,1008,-2388,-1882,1268
1721675917.610185,-3,52,1011,-1811,-1645,1505
1721675917.619435,0,46,1016,-1330,-1558,1627
1721675917.628685,-3,38,1021,-700,-1645,2012
1721675917.637940,3,36,1025,-271,-1715,2598,26806,22937,78887,84585,36356
1721675917.647194,7,33,1026,27,-1794,2563
1721675917.656448,-5,27,1024,193,-1890,2292
1721675917.665702,-19,33,1015,272,-2013,2467
1721675917.674956,-24,41,1008,307,-1995,2668
1721675917.684210,-38,42,1004,298,-1680,2108
1721675917.693464,-39,42,1006,272,-1190,1338
1721675917.702718,-30,42,1015,560,-674,988
1721675917.711975,-20,36,1023,823,-298,236,26745,22821,78942,84572,36354, 155938.700, 40.0102698,-105.2442291, 1594.661,1615.989, 198.762,140.546
1721675917.721229,-3,29,1026,1033,-175,-438
1721675917.730483,10,17,1026,1138,-193,-508
1721675917.739737,10,23,1026,1260,-569,-114
1721675917.748991,-2,18,1027,1330,-1050,280
1721675917.758245,-10,20,1026,1392,-1453,1155
1721675917.767499,-18,25,1027,1322,-1637,2178
1721675917.776753,-27,28,1029,1409,-1654,1627
1721675917.785981,-37,35,1035,1462,-1593,166,26672,22955,79064,84569,36358, 155938.800, 40.0102698,-105.2442291, 1594.661,1615.989, 200.583,141.834
1721675917.795235,-40,46,1042,1392,-1540,-1243
1721675917.804489,-39,45,1047,1304,-1330,-2048
1721675917.813743,-30,42,1052,1505,-1068,-2144
1721675917.822997,-19,29,1055,1803,-805,-1243
1721675917.832251,-5,6,1056,2030,-420,306
1721675917.841505,0,-2,1057,2048,-53,1636
1721675917.850759,-5,-4,1056,1654,113,1907
1721675917.860108,-8,5,1052,980,192,1575,26696,22833,79095
1721675917.869358,-16,19,1042,298,192,1601
1721675917.878608,-26,35,1037,-105,376,2310
1721675917.887858,-27,42,1033,-271,586,2756
1721675917.897108,-21,38,1032,-245,892,2695
1721675917.906358,-19,38,1031,-131,1181,1618
1721675917.915608,-14,38,1024,-96,1198,-105
1721675917.924858,-4,41,1022,-78,1006,-1777
1721675917.933991,7,37,1018,-192,726,-3124,,,,84571,36350, 155938.900, 40.0105135,-105.2442351, 1594.661,1615.989, 329.216,264.585
1721675917.943245,12,19,1023,-367,376,-3614
1721675917.952499,7,8,1032,-621,-202,-3229
1721675917.961753,7,2,1034,-1198,-954,-3255
1721675917.971007,0,5,1033,-2065,-1558,-4104
1721675917.980261,-11,16,1029,-2922,-2232,-5128
1721675917.989515,-13,24,1022,-3640,-2870,-5399
1721675917.998769,-16,22,1013,-4025,-3159,-4612
1721675918.008026,-11,25,1005,-4243,-3308,-3352,26623,22845,79064,84579,36358, 155939.000, 40.0105068,-105.2442315, 1595.247,1616.575, 376.043,277.552
1721675918.017276,-13,30,1002,-4445,-3483,-2555
1721675918.026526,-24,32,998,-4462,-3780,-2109
1721675918.035776,-24,34,997,-4418,-3973,-1365
1721675918.045026,-22,30,1002,-4392,-3885,-482
1721675918.054276,-19,36,1011,-4182,-3719,70
1721675918.063526,-27,38,1011,-3946,-3684,192
1721675918.072776,-19,48,1018,-3692,-3737,-429
1721675918.082032,-26,47,1033,-3570,-3614,-1540,26367,22888,79040,,, 155939.100, 40.0104961,-105.2442406, 1596.988,1618.316, 341.476,253.854
1721675918.091282,-17,42,1046,-3106,-3579,-1479
1721675918.100532,5,30,1052,-2528,-3483,-1129
1721675918.109782,-25,39,1057,-2100,-3623,-1348
1721675918.119032,-27,43,1055,-2030,-4235,-2337
1721675918.128282,-33,37,1057,-1732,-4524,-2013
1721675918.137532,-41,38,1057,-1373,-4752,-1427
1721675918.146782,-46,34,1056,-1190,-4717,-1917
1721675918.156037,-47,21,1054,-1023,-4463,-2783,26165,22875,79223,84577,36356
1721675918.165287,-34,17,1049,-1050,-3850,-3605
1721675918.174537,-17,23,1038,-1260,-3238,-4533
1721675918.183787,-14,25,1027,-1653,-2739,-4585
1721675918.193037,-14,30,1015,-1907,-2433,-2748
1721675918.202287,-26,26,1006,-2213,-2153,-499
1721675918.211537,-42,23,1002,-2205,-1908,1338
1721675918.220787,-55,35,1000,-2406,-1470,2082
1721675918.230072,-53,42,1001,-2712,-657,1688,26129,23046,79071,84573,36358, 155939.200, 40.0104919,-105.2442446, 1597.090,1618.418, 305.840,228.338
1721675918.239322,-45,45,1001,-2756,376,1347
1721675918.248572,-43,45,997,-2651,1260,1478
1721675918.257822,-35,54,998,-2380,1951,1785
1721675918.267072,-24,50,1002,-2091,2502,1688
1721675918.276322,-13,40,1006,-1566,2826,997
1721675918.285572,-5,40,1011,-1050,2808,210
1721675918.294822,-2,36,1016,-813,2406,-648
1721675918.304077,-1,28,1021,-437,1785,-578,26141,23046,79150,84571,36350, 155939.300, 40.0104924,-105.2442487, 1596.526,1617.854, 288.297,215.874
1721675918.313327,-3,21,1021,-26,1111,-132
1721675918.322577,-7,25,1018,202,472,-62
1721675918.331827,-14,27,1016,289,43,157
1721675918.341077,-19,30,1013,473,-193,1032
1721675918.350327,-20,40,1012,709,-245,1741
1721675918.359577,-15,50,1009,910,-149,1715
1721675918.368827,-7,62,1011,1155,52,1925
1721675918.378083,-3,51,1019,1628,26,2423,,,,,, 155939.400, 40.0105031,-105.2442473, 1595.480,1616.808, 278.039,208.575
1721675918.387333,-8,48,1025,2188,-315,2852
1721675918.396583,-15,40,1025,2512,-902,2642
1721675918.405833,-18,29,1022,2660,-1602,2318
1721675918.415083,-25,23,1022,2730,-2144,2178
1721675918.424333,-23,20,1024,2643,-2617,1890
1721675918.433583,-34,15,1025,2398,-2870,1933
1721675918.442833,-41,0,1026,2039,-2993,2345
1721675918.452088,-51,-2,1026,1593,-2827,2598,25915,22912,79345,84580,36352
1721675918.461338,-59,1,1030,910,-2450,2467
1721675918.470588,-57,4,1033,175,-1794,2371
1721675918.479838,-59,8,1036,-507,-972,2406
1721675918.489088,-63,12,1039,-1207,-359,2135
1721675918.498338,-57,15,1035,-1828,8,1347
1721675918.507588,-58,24,1034,-2485,446,-499
1721675918.516838,-48,36,1033,-3115,647,-2652
1721675918.526123,-53,39,1035,-3281,708,-2555,25958,23107,79272,84573,36356, 155939.500, 40.0105013,-105.2442477, 1595.478,1616.806, 271.224,203.727
1721675918.535373,-39,27,1036,-3325,656,-1969
1721675918.544623,-38,27,1036,-3220,901,-2013
1721675918.553873,-32,28,1037,-3281,1155,-2590
1721675918.563123,-22,28,1039,-3316,1400,-2442
1721675918.572373,-25,33,1043,-3395,1636,-2617
1721675918.581623,-23,42,1041,-3613,1802,-3168
1721675918.590873,-16,42,1037,-3727,1995,-2879
1721675918.600128,-12,41,1031,-3570,2213,-2083,26092,23358,79229,84574,36352
1721675918.609378,-11,48,1027,-3360,2231,-1155
1721675918.618628,-11,58,1030,-3255,2196,-385
1721675918.627878,-11,63,1031,-3010,2108,148
1721675918.637128,-3,65,1028,-2528,1968,1023
1721675918.646378,0,63,1031,-2038,1785,1907
1721675918.655628,-11,63,1037,-1540,1496,2266
1721675918.664878,-13,63,1035,-1058,1190,2283
1721675918.674164,-12,48,1027,-560,953,2082,26129,23461,79144,,, 155939.700, 40.0105383,-105.2442768, 1596.662,1617.990, 119.642,101.449
1721675918.683414,-11,44,1017,-52,813,1373
1721675918.692664,-10,48,1010,210,691,411
1721675918.701914,-11,49,1007,228,516,-105
1721675918.711164,-5,46,1001,394,288,-44
1721675918.720414,-13,42,1000,359,0,673
1721675918.729664,-14,40,1003,184,-315,1373
1721675918.738914,-25,40,1008,-96,-674,2065
1721675918.748169,-37,44,1011,-498,-1199,1653,,,,84573,36350
1721675918.757419,-31,40,1015,-857,-1462,1592
1721675918.766669,-31,37,1018,-1058,-1453,2205
1721675918.775919,-34,39,1021,-1251,-1593,2073
1721675918.785169,-45,40,1018,-1347,-1645,1531
1721675918.794419,-49,35,1016,-1338,-1680,1925
1721675918.803669,-49,31,1019,-1338,-1383,2257
1721675918.812919,-48,27,1025,-1347,-884,1960
1721675918.822174,-40,20,1027,-1487,-420,1706,26013,23535,79223,84573,36350, 155939.800, 40.0721749,-105.7129686, 7651.965,7672.959, 25000.002,17677.670
1721675918.831424,-34,19,1033,-1662,183,1452
1721675918.840674,-36,27,1032,-2021,603,822
1721675918.849924,-23,35,1028,-2406,743,157
1721675918.859174,-21,49,1026,-2651,962,35
1721675918.868424,-16,57,1023,-2852,945,148
1721675918.877674,-20,66,1017,-2975,1006,420
1721675918.886924,-9,70,1017,-2913,945,428
1721675918.896179,-2,81,1014,-2572,796,787,26110,23699,79217,84575,36348, 155939.900, 40.0102800,-105.2442884, 1570.338,1591.666, 615.261,147.376
1721675918.905429,-4,84,1017,-2310,542,533
1721675918.914679,-1,86,1012,-1837,-35,393
1721675918.923929,0,80,1013,-1408,-254,857
1721675918.933179,-3,80,1016,-875,-630,1338
1721675918.942429,-10,78,1021,-437,-1024,1522
1721675918.951679,-6,72,1025,44,-1313,1785
1721675918.960929,-7,73,1025,657,-1610,1820
1721675918.970185,-1,72,1022,1147,-1908,1505,25903,23669,79193,,, 155940.000, 40.0102758,-105.2442865, 1570.338,1591.666, 615.265,147.377
1721675918.979435,5,80,1018,1567,-2275,1286
1721675918.988685,-5,82,1018,2022,-2660,1470
1721675918.997935,-22,82,1016,2669,-3369,1872
1721675919.007185,-26,78,1010,3282,-3859,2292
1721675919.016435,-38,70,1010,3807,-3824,2563
1721675919.025685,-43,65,1009,4367,-3789,2835
1721675919.034935,-47,55,1016,4760,-3649,3097
1721675919.044220,-58,42,1019,4979,-3448,2695,25616,23291,79467,84578,36354
1721675919.053470,-63,29,1025,5084,-3168,1916
1721675919.062720,-65,21,1027,4900,-2660,1067
1721675919.071970,-66,20,1027,4699,-2258,-447
1721675919.081220,-60,23,1031,4200,-1750,-2100
1721675919.090470,-58,26,1032,3632,-1199,-3273
1721675919.099720,-56,23,1032,3115,-858,-3684
1721675919.108970,-46,27,1031,2722,-525,-3955
1721675919.118225,-33,34,1033,2197,-228,-4279,25531,23034,79455,84573,36350, 155940.100, 40.0109157,-105.2443871, 1577.734,1599.062, 237.322,75.025
1721675919.127475,-14,53,1034,1777,-97,-4673
1721675919.136725,0,65,1037,1610,-193,-3649
1721675919.145975,13,62,1036,1847,-525,-604
1721675919.155225,20,61,1036,2372,-902,2931
1721675919.164475,11,65,1033,2844,-1470,4917
1721675919.173725,5,83,1030,3150,-2380,4838
1721675919.182975,11,84,1029,3457,-3142,4567
1721675919.192231,0,81,1030,4034,-3920,4112,,,,84573,36348, 155940.200, 40.0108756,-105.2443643, 1586.121,1607.449, 177.484,59.531
1721675919.201481,-6,73,1030,4454,-4839,3158
1721675919.210731,-9,66,1030,4874,-5600,1995
1721675919.219981,-19,58,1030,5417,-6239,2336
1721675919.229231,-33,48,1026,5872,-6554,3701
1721675919.238481,-32,29,1021,6440,-6633,5748
1721675919.247731,-38,14,1018,6860,-6458,7376
1721675919.256981,-57,11,1018,6930,-6379,7927
1721675919.266266,-94,10,1019,6423,-6423,6965,24896,22717,79852
1721675919.275516,-118,14,1017,5784,-6213,5118
1721675919.284766,-123,-3,1013,5417,-5312,4313
1721675919.294016,-121,-7,1011,5084,-4104,2572
1721675919.303266,-133,-25,1015,4410,-2853,-429
1721675919.312516,-153,-4,1025,3597,-1593,-2520
1721675919.321766,-147,8,1034,2599,-315,-3763
1721675919.331016,-104,23,1029,2004,1146,-6265
1721675919.340271,-52,30,1029,1768,2467,-7849,24865,22344,79956,84578,36354, 155940.300, 40.0104563,-105.2442176, 1589.312,1610.640, 88.728,45.416
1721675919.349521,4,37,1032,1698,2870,-9293
1721675919.358771,26,37,1032,1890,2292,-9135
1721675919.368021,31,37,1030,2083,787,-7692
1721675919.377271,27,34,1032,2188,-849,-4524
1721675919.386521,20,32,1037,2468,-2468,-79
1721675919.395771,-9,30,1043,2800,-4008,3053
1721675919.405021,-64,44,1042,3045,-5172,4987
1721675919.414276,-118,25,1037,3229,-5705,6203,24493,22021,80194,84573,36348, 155940.400, 40.0104242,-105.2442040, 1593.073,1614.401, 69.753,40.123
1721675919.423526,-159,-2,1031,3457,-5408,3552
1721675919.432776,-125,-3,1024,3457,-4227,-1304
1721675919.442026,-44,6,1021,2993,-2477,-5250
1721675919.451276,18,-115,1029,2625,-1313,-8567
1721675919.460526,79,-11,1034,2022,-1812,-10623
1721675919.469776,93,52,1036,394,-3194,96
1721675919.479026,-10,42,1043,-262,-5539,2310
1721675919.488282,24,141,1028,-245,-7709,472,23687,21929,80505,84571,36350, 155940.500, 40.0104196,-105.2442022, 1595.365,1616.693, 59.507,36.536
1721675919.497532,8,178,1015,543,-8750,8120
1721675919.506782,-29,149,1007,2669,-9993,9642
1721675919.516032,-75,92,999,5303,-10833,10850
1721675919.525282,-139,31,996,7499,-10999,13615
1721675919.534532,-215,-19,1000,8724,-10422,12372
1721675919.543782,-337,-35,1002,8960,-9065,10132
1721675919.553032,-312,-96,1000,8532,-6213,5687
1721675919.562317,-193,-149,1000,7657,-1812,-3098,23822,21343,80615
1721675919.571567,-104,-102,1009,6230,1592,-6388
1721675919.580817,-100,-59,1014,4235,3141,-7359
1721675919.590067,-98,-27,1012,2302,3552,-12487
1721675919.599317,-77,-35,1006,1409,3823,-15672
1721675919.608567,-71,-37,998,1269,4042,-13309
1721675919.617817,-62,-55,991,1059,3928,-8120
1721675919.627067,-42,-76,991,665,3683,-4349
1721675919.636383,-44,-88,994,9,3316,157,,,,84570,36345, 155940.600, 40.0104256,-105.2441998, 1597.344,1618.672, 49.882,33.521
1721675919.645633,-56,-82,994,-813,2380,6317
1721675919.654883,-61,-63,994,-2117,1645,10036
1721675919.664133,-63,-48,995,-3246,1260,13072
1721675919.673383,-49,-32,997,-3928,1023,16826
1721675919.682633,-40,-20,1006,-4287,647,20002
1721675919.691883,-61,3,1015,-4515,140,20037
1721675919.701133,-93,12,1021,-4515,-350,20133
1721675919.710388,-105,5,1023,-4103,-368,19311,23510,21954,80566,84574,36354, 155940.700, 40.0104296,-105.2441999, 1598.939,1620.267, 44.244,31.142
1721675919.719642,-92,13,1031,-3745,245,15540
1721675919.728896,-96,22,1037,-3377,980,12110
1721675919.738150,-105,25,1034,-2975,1513,9546
1721675919.747404,-106,16,1034,-2520,2126,7638
1721675919.756658,-153,6,1044,-2091,2957,6256
1721675919.765912,-161,-44,1063,-1811,4025,3255
1721675919.775166,-110,-9,1067,-1828,5591,-1663
1721675919.784424,-24,44,1055,-2108,7402,4025,23608,22021,80407,84575,36356, 155940.800, 40.0104353,-105.2441999, 1600.903,1622.231, 40.027,29.388
1721675919.793678,23,14,1042,-2021,8198,7175
1721675919.802932,-1,8,1047,-1505,7761,2905
1721675919.812186,-71,35,1062,-1583,6545,2773
1721675919.821440,-83,21,1063,-1356,5670,12722
1721675919.830694,-91,-18,1054,-778,5565,25725
1721675919.839948,-107,-50,1051,-446,5748,30143
1721675919.849202,-114,-81,1043,-892,5950,29050
1721675919.858429,-108,-91,1036,-1968,6212,23808,23748,22656,79962
1721675919.867679,-86,-87,1033,-3622,6833,17631
1721675919.876929,-83,-61,1031,-5495,7463,12311
1721675919.886179,-8,-35,1029,-7218,7910,6317
1721675919.895429,16,8,1031,-8548,8058,1347
1721675919.904679,-7,28,1032,-9318,7166,796
1721675919.913929,-34,47,1027,-9082,5950,4418
1721675919.923179,-51,48,1021,-8601,5110,8531
1721675919.932434,-71,39,1018,-8067,4795,9896,24060,23400,79650,84583,36348, 155940.900, 40.0104444,-105.2442008, 1601.931,1623.259, 36.193,27.473
1721675919.941684,-89,27,1019,-7630,4663,8881
1721675919.950934,-81,48,1022,-7393,4900,6221
1721675919.960184,-84,49,1019,-7315,5302,3010
1721675919.969434,-63,72,1017,-6903,5521,525
1721675919.978684,-20,61,1021,-6501,5643,-639
1721675919.987934,16,63,1017,-5766,5530,-919
1721675919.997184,11,39,1005,-4908,4803,96
1721675920.006440,5,40,1005,-4060,3508,3447,,,,84580,36354, 155941.000, 40.0104422,-105.2442063, 1602.703,1624.031, 32.662,25.586
1721675920.015690,4,58,1004,-3876,2581,8128
1721675920.024940,-20,57,1006,-4025,1925,11742
1721675920.034190,-48,46,1004,-3902,1417,14017
1721675920.043440,-79,46,1008,-3981,1461,13676
1721675920.052690,-84,35,1005,-4366,2082,9948
1721675920.061940,-70,20,1005,-4506,3158,3850
1721675920.071190,-60,31,1008,-4707,3902,-2380
1721675920.080475,-36,41,1012,-4943,4252,-5740,24108,23956,79431,,, 155941.100, 40.0104279,-105.2442094, 1603.037,1624.365, 29.632,23.575
1721675920.089725,-10,35,1016,-4891,4480,-6992
1721675920.098975,-5,33,1025,-4681,4462,-7560
1721675920.108225,3,45,1030,-4471,3858,-5373
1721675920.117475,10,39,1030,-3946,3220,1391
1721675920.126725,-9,19,1028,-3246,2406,7411
1721675920.135975,-36,22,1027,-2590,1531,10517
1721675920.145225,-55,20,1025,-2336,971,12468
1721675920.154480,-69,33,1027,-2073,787,12346,24163,24462,79418,84569,36350
1721675920.163730,-53,52,1027,-1986,1146,9362
1721675920.172980,-43,54,1023,-1837,1645,4716
1721675920.182230,-30,58,1019,-1277,1785,918
1721675920.191480,-20,58,1017,-787,1697,-998
1721675920.200730,-16,51,1019,-393,1443,-1295
1721675920.209980,-10,48,1020,-70,1023,-2004
1721675920.219230,-8,51,1019,-218,638,-3273
1721675920.228485,0,56,1015,-516,350,-3492,24200,24475,79357,84577,36356, 155941.200, 40.0104132,-105.2442122, 1603.684,1625.012, 27.194,21.940
1721675920.237735,2,52,1019,-691,-62,-2258
1721675920.246985,-13,47,1020,-551,-648,-464
1721675920.256235,-28,40,1014,-393,-1523,2117
1721675920.265485,-33,35,1007,0,-2407,4427
1721675920.274735,-35,32,1003,-70,-2722,5635
1721675920.283985,-29,40,1007,-61,-3203,7061
1721675920.293235,-20,36,1017,27,-3824,8881
1721675920.302582,-27,37,1031,9,-4340,9791,23571,24932,79455,84574,36352, 155941.300, 40.0103909,-105.2442092, 1603.439,1624.767, 25.304,20.858
1721675920.311832,-32,25,1035,-78,-4865,10062
1721675920.321082,-45,29,1032,-262,-5014,9388
1721675920.330332,-50,34,1030,-796,-4944,8382
1721675920.339582,-55,12,1032,-1172,-4699,7673
1721675920.348832,-69,7,1033,-1277,-4577,6116
1721675920.358082,-80,9,1037,-1662,-4480,3666
1721675920.367332,-87,14,1040,-2091,-4445,1645
1721675920.376587,-107,11,1040,-2485,-4314,-105,23449,25292,79400,,, 155941.400, 40.0103870,-105.2442085, 1603.000,1624.328, 23.906,19.854
1721675920.385837,-119,-5,1036,-2616,-4095,-2100
1721675920.395087,-122,-21,1029,-2730,-3605,-4235
1721675920.404337,-126,-5,1022,-3290,-2958,-6677
1721675920.413587,-111,-10,1022,-4375,-1952,-8400
1721675920.422837,-81,-1,1024,-5320,-578,-9529
1721675920.432087,-84,25,1031,-6282,752,-11148
1721675920.441337,-69,48,1030,-7105,1653,-11822
1721675920.450592,-70,43,1029,-7393,2493,-9380,,,,84577,36345
1721675920.459842,-79,40,1031,-7201,2992,-8829
1721675920.469092,-83,50,1035,-6886,3202,-9608
1721675920.478342,-75,57,1043,-6685,3675,-9932
1721675920.487592,-59,46,1044,-6422,4252,-10203
1721675920.496842,-34,49,1046,-6116,4926,-11682
1721675920.506092,6,68,1048,-6072,5495,-12277
1721675920.515342,24,73,1047,-6037,5687,-10492
1721675920.524597,35,67,1041,-5451,5083,-7114,23931,25573,79077,84578,36352, 155941.500, 40.0103797,-105.2442059, 1602.503,1623.831, 22.679,18.965
1721675920.533847,29,71,1041,-4672,4147,-4332
1721675920.543097,7,78,1040,-3963,3027,-2205
1721675920.552347,-6,81,1036,-3246,1846,-499
1721675920.561597,-15,81,1033,-2572,1085,490
1721675920.570847,-29,83,1029,-1933,525,131
1721675920.580097,-36,79,1022,-1330,245,-587
1721675920.589347,-32,62,1014,-743,192,-875
1721675920.598633,-35,53,1014,-183,315,-1803,23980,25811,78900,84573,36350, 155941.600, 40.0103774,-105.2442048, 1602.384,1623.712, 21.614,18.237
1721675920.607883,-48,55,1013,79,131,-3465
1721675920.617133,-43,43,1007,193,-70,-4340
1721675920.626383,-41,40,1001,412,-27,-4060
1721675920.635633,-58,33,996,438,-27,-3369
1721675920.644883,-80,36,994,377,-263,-3579
1721675920.654133,-90,44,998,158,-44,-4244
1721675920.663383,-83,53,1003,-148,560,-4323
1721675920.672638,-73,45,1004,-288,1286,-3798,24157,25653,78857
1721675920.681888,-52,41,1012,-218,1881,-3115
1721675920.691138,-40,39,1020,-428,2310,-3710
1721675920.700388,-30,41,1022,-918,2423,-4769
1721675920.709638,-20,42,1013,-1487,2345,-5163
1721675920.718888,-10,51,1009,-1758,2065,-4367
1721675920.728138,-4,57,1010,-1802,1645,-2923
1721675920.737388,-3,74,1018,-1968,1102,-2398
1721675920.746796,-4,85,1029,-1925,498,-1794,24084,25756,78875,84582,36354, 155941.700, 40.0103784,-105.2442049, 1602.433,1623.761, 20.627,17.563
1721675920.756046,-1,87,1035,-1706,-149,-928
1721675920.765296,0,81,1038,-1155,-954,708
1721675920.774546,-2,64,1032,-586,-1715,2161
1721675920.783796,-5,54,1027,-26,-2494,2878
1721675920.793046,-23,46,1025,333,-3255,3158
1721675920.802296,-37,42,1023,403,-3815,3071
1721675920.811546,-50,34,1021,368,-4052,2931
1721675920.820679,-56,27,1022,385,-4174,2843,23760,25799,78948,84569,36350, 155941.800, 40.0103841,-105.2442062, 1602.725,1624.053, 19.711,16.954
1721675920.829929,-56,18,1025,280,-4113,2502
1721675920.839179,-60,19,1027,-52,-3973,1828
1721675920.848429,-65,25,1027,-490,-3745,1216
1721675920.857679,-73,38,1028,-962,-3413,787
1721675920.866929,-84,41,1027,-1198,-2940,621
1721675920.876179,-87,42,1024,-1312,-2293,385
1721675920.885429,-84,45,1022,-1295,-1435,271
1721675920.894684,-92,48,1021,-1251,-560,-158,,,,84577,36358, 155941.900, 40.0103922,-105.2442085, 1603.097,1624.425, 18.896,16.409
1721675920.903934,-102,55,1021,-1032,96,-438
1721675920.913184,-102,58,1018,-700,936,-245
1721675920.922434,-87,56,1019,-262,1750,-307
1721675920.931684,-73,48,1025,9,2765,-674
1721675920.940934,-67,41,1026,158,3526,-867
1721675920.950184,-58,48,1036,88,4077,-1339
1721675920.959434,-59,47,1035,105,4515,-639
1721675920.968689,-52,39,1027,333,4751,-70,24060,25860,78869
1721675920.977939,-45,48,1026,464,4996,0
1721675920.987189,-39,54,1020,272,5250,-1260
1721675920.996439,-28,52,1020,167,5258,-2835
1721675921.005689,-13,53,1018,263,5048,-3824
1721675921.014939,1,61,1016,193,4628,-4944
1721675921.024189,13,68,1017,62,3946,-5452
1721675921.033439,24,81,1020,44,3010,-4332
1721675921.042694,22,80,1020,210,1863,-1427,24340,25927,78723,84570,36352, 155942.000, 40.0103986,-105.2442119, 1603.636,1624.964, 18.167,15.935
1721675921.051944,7,79,1018,517,638,1356
1721675921.061194,-7,78,1015,639,-412,2983
1721675921.070444,-32,77,1012,700,-1357,3727
1721675921.079694,-53,74,1011,875,-2345,2957
1721675921.088944,-60,65,1011,1033,-2870,1916
1721675921.098194,-64,53,1008,1339,-2967,1058
1721675921.107444,-62,47,1006,1540,-3080,-482
1721675921.116730,-59,48,1010,1575,-3133,-2188,24102,25848,78747,84574,36354, 155942.100, 40.0104076,-105.2442164, 1604.199,1625.527, 17.511,15.510
1721675921.125980,-68,51,1020,1427,-3238,-2949
1721675921.135230,-69,33,1024,1330,-3290,-2792
1721675921.144480,-70,23,1023,1339,-3037,-2293
1721675921.153730,-74,15,1020,1190,-2555,-1252
1721675921.162980,-82,19,1016,849,-1908,-1094
1721675921.172230,-84,28,1017,307,-1068,-1383
1721675921.181480,-92,27,1016,-26,-149,-1278
1721675921.190735,-92,37,1018,-315,638,-1733,24322,25994,78625,84575,36348, 155942.200, 40.0104213,-105.2442218, 1604.586,1625.914, 16.768,15.091
1721675921.199985,-72,41,1024,-638,1522,-2162
1721675921.209235,-55,46,1025,-945,2432,-3177
1721675921.218485,-36,46,1028,-1172,2931,-3859
1721675921.227735,-18,57,1032,-1356,3036,-4297
1721675921.236985,-16,62,1036,-1452,2922,-4069
1721675921.246235,-14,65,1033,-1408,2450,-3833
1721675921.255485,-20,81,1029,-1163,1995,-2739
1721675921.264740,-35,100,1026,-805,1496,-1225
1721675921.273990,-47,118,1024,-428,1260,-1059
1721675921.283240,-63,148,1025,298,1233,-1042
1721675921.292490,-44,91,1022,1427,1382,-2284
1721675921.301740,-31,90,1015,2555,1443,-3745
1721675921.310990,-33,90,1006,3019,1408,-1549
1721675921.320240,-36,95,1003,3457,1373,-2065
1721675921.329490,-28,98,999,3964,1277,-2914
1721675921.338776,-11,94,994,4594,1225,-2144,24548,25836,78686,84577,36358, 155942.300, 40.0104326,-105.2442260, 1605.024,1626.352, 16.111,14.680
1721675921.348026,19,81,990,5189,1015,-560
1721675921.357276,41,62,991,5740,568,1513
1721675921.366526,43,46,997,6222,-534,3631
1721675921.375776,34,55,1005,6353,-1978,6020
1721675921.385026,23,59,1014,6248,-3054,8750
1721675921.394276,-10,46,1020,6300,-4104,10762
1721675921.403526,-53,30,1020,6510,-4953,11506
1721675921.412781,-77,20,1022,6493,-5242,11016,24084,25622,78814,84577,36356, 155942.400, 40.0104425,-105.2442299, 1605.395,1626.723, 15.534,14.305
1721675921.422031,-87,20,1027,6204,-4822,8618
1721675921.431281,-95,14,1029,5907,-4130,5285
1721675921.440531,-103,15,1033,5653,-3395,1356
1721675921.449781,-83,2,1029,5347,-2643,-1663
1721675921.459031,-63,8,1028,5102,-1960,-3220
1721675921.468281,-55,8,1030,4690,-1584,-3597
1721675921.477531,-55,10,1034,4235,-1365,-3395
1721675921.486786,-58,12,1036,3719,-1068,-1785,23913,25427,78942,84573,36356, 155942.500, 40.0104494,-105.2442319, 1605.541,1626.869, 15.016,13.956
1721675921.496036,-67,15,1040,3229,-744,603
1721675921.505286,-72,14,1040,2757,-385,1916
1721675921.514536,-72,11,1038,2240,122,2773
1721675921.523786,-76,10,1033,1637,630,2966
1721675921.533036,-87,27,1029,884,927,1793
1721675921.542286,-87,38,1028,237,1277,481
1721675921.551536,-73,44,1030,-236,1855,-517
1721675921.560822,-52,52,1030,-507,2423,-954,24035,25262,78808
1721675921.570072,-45,55,1031,-673,2712,-989
1721675921.579322,-40,56,1029,-691,2660,-937
1721675921.588572,-40,56,1026,-770,2511,-587
1721675921.597822,-44,55,1023,-813,2397,-53
1721675921.607072,-45,56,1022,-796,2152,271
1721675921.616322,-46,55,1022,-638,2030,498
1721675921.625572,-49,54,1022,-525,1898,175
1721675921.634827,-48,47,1026,-472,1855,-569,24188,25323,78778,84577,36356, 155942.600, 40.0104546,-105.2442341, 1605.568,1626.896, 14.547,13.628
1721675921.644077,-44,39,1027,-341,1680,-1435
1721675921.653327,-39,38,1029,-271,1531,-2660
1721675921.662577,-31,37,1028,-280,1373,-4279
1721675921.671827,-22,34,1030,-393,1251,-4900
1721675921.681077,-18,33,1031,-393,1041,-4603
1721675921.690327,-21,33,1030,-376,612,-3894
1721675921.699577,-28,34,1027,-446,288,-2967
1721675921.708832,-40,39,1023,-420,17,-1873,,,,84575,36356, 155942.700, 40.0104613,-105.2442376, 1605.630,1626.958, 14.105,13.323
1721675921.718082,-50,37,1019,-341,-167,-980
1721675921.727332,-54,43,1015,-245,-62,-517
1721675921.736582,-56,51,1014,-262,218,-368
1721675921.745832,-60,54,1013,-262,437,-412
1721675921.755082,-56,56,1011,-61,656,-377
1721675921.764332,-50,56,1011,184,988,-569
1721675921.773582,-46,59,1010,307,1233,-858
1721675921.782837,-43,61,1012,429,1426,-919,24218,25390,78833,,, 155942.800, 40.0104673,-105.2442405, 1605.545,1626.873, 13.677,13.028
1721675921.792087,-40,57,1015,674,1496,-1094
1721675921.801337,-39,54,1016,1015,1496,-1173
1721675921.810587,-41,55,1021,1120,1461,-1269
1721675921.819837,-36,53,1022,1304,1338,-1479
1721675921.829087,-29,45,1022,1549,1093,-1287
1721675921.838337,-26,45,1023,1759,848,-867
1721675921.847587,-27,46,1023,1812,490,-735
1721675921.856873,-27,49,1024,1812,105,-587,24237,25262,78735,84574,36354
1721675921.866123,-30,52,1028,1899,-272,-123
1721675921.875373,-34,42,1031,2048,-762,280
1721675921.884623,-31,37,1032,2109,-1077,245
1721675921.893873,-32,32,1031,2030,-1243,131
1721675921.903123,-35,33,1029,1978,-1610,-429
1721675921.912373,-38,31,1028,1794,-1759,-937
1721675921.921623,-42,32,1028,1584,-1960,-963
1721675921.930878,-49,28,1026,1488,-2100,-1007,24060,25134,78924,84577,36356, 155942.900, 40.0104731,-105.2442429, 1605.638,1626.966, 13.299,12.727
1721675921.940128,-56,25,1029,1304,-2275,-1077
1721675921.949378,-60,20,1028,1024,-2267,-1050
1721675921.958628,-60,13,1026,823,-2188,-1007
1721675921.967878,-55,11,1026,543,-1995,-1147
1721675921.977128,-55,17,1026,193,-1838,-1147
1721675921.986378,-53,24,1024,-192,-1549,-1287
1721675921.995628,-55,29,1028,-525,-1357,-1024
1721675922.004883,-56,33,1030,-708,-1260,-954,23901,25115,78997,84572,36365, 155943.000, 40.0104797,-105.2442453, 1605.818,1627.146, 12.963,12.450
1721675922.014133,-55,30,1030,-735,-1085,-805
1721675922.023383,-59,33,1026,-796,-840,-560
1721675922.032633,-65,31,1025,-813,-595,-508
1721675922.041883,-68,36,1024,-787,-455,-1339
1721675922.051133,-65,38,1021,-892,-132,-2057
1721675922.060383,-61,42,1019,-1015,253,-2757
1721675922.069633,-55,43,1018,-980,630,-3168
1721675922.078919,-47,49,1017,-822,840,-2792,23980,25231,79064,,, 155943.100, 40.0104854,-105.2442483, 1606.147,1627.475, 12.657,12.180
1721675922.088169,-40,50,1019,-717,1041,-2240
1721675922.097419,-38,50,1023,-595,1128,-1987
1721675922.106669,-40,50,1024,-516,1172,-1838
1721675922.115919,-36,46,1025,-192,1067,-1304
1721675922.125169,-37,42,1025,70,945,-797
1721675922.134419,-36,43,1027,193,778,-665
1721675922.143669,-40,45,1027,350,708,-525
1721675922.152924,-40,44,1025,569,595,-210,,,,84577,36356
1721675922.162174,-42,40,1024,753,516,-88
1721675922.171424,-44,39,1023,858,428,96
1721675922.180674,-44,39,1026,832,420,428
1721675922.189924,-45,40,1026,945,367,288
1721675922.199174,-43,37,1025,998,393,-62
1721675922.208424,-37,33,1024,972,498,-167
1721675922.217674,-42,30,1021,1042,542,-70
1721675922.226929,-49,31,1018,1007,385,-307,23895,25335,79193,84577,36358, 155943.200, 40.0104915,-105.2442513, 1606.726,1628.054, 12.349,11.844
1721675922.236179,-51,33,1018,779,306,-762
1721675922.245429,-50,32,1016,630,367,-1042
1721675922.254679,-45,30,1014,385,507,-1182
1721675922.263929,-49,36,1016,298,393,-1470
1721675922.273179,-45,41,1018,132,271,-1645
1721675922.282429,-40,38,1023,79,236,-1339
1721675922.291679,-35,35,1025,149,157,-1068
1721675922.300965,-37,32,1027,219,-44,-972,23822,25292,79187,84569,36358, 155943.300, 40.0104938,-105.2442529, 1606.859,1628.187, 12.035,11.522
1721675922.310219,-45,32,1028,254,-377,-1094
1721675922.319473,-48,32,1031,140,-735,-1908
1721675922.328727,-46,32,1034,97,-884,-2547
1721675922.337981,-48,28,1033,140,-1190,-2547
1721675922.347235,-44,28,1031,132,-1374,-2564
1721675922.356489,-45,29,1025,-105,-1418,-2512
1721675922.365743,-50,34,1021,-306,-1610,-2573
1721675922.375000,-54,39,1019,-446,-1777,-2214,23663,25341,79229,,, 155943.400, 40.0104953,-105.2442548, 1606.929,1628.257, 11.773,11.238
1721675922.384250,-60,40,1021,-621,-1619,-1750
1721675922.393500,-58,41,1024,-638,-1330,-1584
1721675922.402750,-55,33,1025,-560,-1112,-1112
1721675922.412000,-61,35,1027,-367,-867,-508
1721675922.421250,-67,34,1031,-341,-613,-324
1721675922.430500,-70,35,1032,-350,-342,-604
1721675922.439750,-65,32,1034,-236,52,-814
1721675922.449005,-59,33,1033,-192,577,-1024,23736,25170,79229,84574,36354
1721675922.458255,-56,36,1029,-245,980,-1523
1721675922.467505,-52,39,1027,-271,1382,-1637
1721675922.476755,-49,39,1026,-166,1557,-1715
1721675922.486005,-47,44,1024,-105,1776,-2170
1721675922.495255,-47,43,1022,-43,1881,-2249
1721675922.504505,-50,45,1021,123,1960,-2170
1721675922.513755,-50,47,1018,280,1960,-2048
1721675922.523011,-46,47,1018,420,2108,-1969,,,,84580,36365, 155943.500, 40.0104954,-105.2442561, 1606.825,1628.153, 11.480,10.964
1721675922.532265,-41,42,1017,587,2178,-2135
1721675922.541519,-37,41,1013,674,2152,-2459
1721675922.550773,-34,39,1011,762,1933,-2748
1721675922.560027,-34,41,1011,744,1785,-2888
1721675922.569281,-31,44,1012,683,1618,-2853
1721675922.578535,-26,44,1014,709,1330,-2590
1721675922.587789,-27,44,1017,893,971,-2022
1721675922.597046,-28,41,1019,928,551,-1672,23852,25103,79162,84575,36356, 155943.600, 40.0104971,-105.2442569, 1606.745,1628.073, 11.220,10.722
1721675922.606296,-32,36,1021,1015,113,-1348
1721675922.615546,-37,35,1025,1050,-263,-1348
1721675922.624796,-40,31,1024,1059,-560,-1269
1721675922.634046,-45,28,1027,1050,-805,-1278
1721675922.643296,-48,30,1030,954,-893,-1444
1721675922.652546,-49,25,1029,937,-989,-1470
1721675922.661796,-47,22,1027,954,-989,-1190
1721675922.671051,-51,25,1026,805,-832,-1059,23864,24981,79180,,, 155943.700, 40.0104970,-105.2442575, 1606.665,1627.993, 10.987,10.520
1721675922.680301,-52,26,1026,630,-718,-1033
1721675922.689551,-52,25,1026,578,-639,-805
1721675922.698801,-52,26,1027,508,-420,-560
1721675922.708051,-53,24,1029,245,-149,-613
1721675922.717301,-52,24,1031,18,0,-1033
1721675922.726551,-49,24,1029,-210,140,-1715
1721675922.735801,-51,25,1026,-402,306,-2074
1721675922.745056,-52,30,1024,-691,568,-2057,23828,24975,79278,84575,36358
1721675922.754306,-53,37,1024,-778,700,-1908
1721675922.763556,-54,41,1023,-805,805,-1803
1721675922.772806,-56,48,1022,-857,752,-1645
1721675922.782056,-54,49,1023,-848,962,-1750
1721675922.791306,-46,46,1027,-752,1260,-1575
1721675922.800556,-41,41,1031,-560,1338,-1068
1721675922.809806,-43,34,1029,-446,1417,-893
1721675922.819062,-48,28,1027,-332,1452,-1120,23950,24975,79168,84573,36361, 155943.800, 40.0104957,-105.2442585, 1606.628,1627.956, 10.769,10.331
1721675922.828312,-45,29,1025,-271,1435,-1409
1721675922.837562,-47,31,1022,-358,1470,-1777
1721675922.846812,-39,33,1024,-472,1496,-2433
1721675922.856062,-31,42,1022,-630,1566,-2783
1721675922.865312,-28,40,1025,-647,1347,-2669
1721675922.874562,-27,43,1027,-638,1032,-2459
1721675922.883812,-24,40,1029,-726,708,-2179
1721675922.893097,-31,38,1028,-665,332,-1733,24017,25061,79187,84575,36367, 155943.900, 40.0104949,-105.2442592, 1606.481,1627.808, 10.564,10.155
1721675922.902347,-36,38,1024,-568,-97,-1602
1721675922.911597,-43,40,1021,-498,-272,-1339
1721675922.920847,-47,36,1016,-542,-263,-937
1721675922.930097,-48,34,1014,-516,-132,-595
1721675922.939347,-49,37,1014,-288,-132,-648
1721675922.948597,-47,42,1016,-271,-79,-858
1721675922.957847,-42,40,1015,-288,8,-1033
1721675922.967255,-39,40,1015,-210,148,-884
1721675922.976505,-41,42,1017,-131,113,-648
1721675922.985755,-41,37,1017,-52,70,-482
1721675922.995005,-42,36,1016,158,52,-167
1721675923.004255,-51,35,1017,289,78,-9
1721675923.013505,-52,28,1019,377,113,-114
1721675923.022755,-48,23,1018,499,61,-245
1721675923.032005,-43,24,1019,412,253,-569
1721675923.041260,-41,29,1018,228,271,-884,23968,25134,79217,84576,36361, 155944.000, 40.0104941,-105.2442595, 1606.285,1627.613, 10.369,9.987
1721675923.050514,-40,32,1018,158,245,-989
1721675923.059768,-41,35,1021,105,78,-735
1721675923.069022,-40,35,1022,-78,70,-718
1721675923.078276,-40,36,1022,-70,-18,-753
1721675923.087530,-41,37,1022,-26,-105,-770
1721675923.096784,-44,38,1023,-17,-193,-595
1721675923.106038,-50,38,1022,-43,-342,-359
1721675923.115296,-51,39,1021,0,-473,-132,23980,25207,79217,84581,36358, 155944.100, 40.0104933,-105.2442603, 1606.092,1627.420, 10.183,9.827
1721675923.124550,-49,38,1024,44,-534,-210
1721675923.133804,-43,36,1025,53,-438,-219
1721675923.143058,-38,33,1026,-8,-377,17
1721675923.152312,-37,33,1029,-26,-403,105
1721675923.161566,-38,31,1033,-78,-622,236
1721675923.170820,-35,25,1034,-253,-735,323
1721675923.180074,-35,25,1036,-332,-884,157
1721675923.189301,-44,28,1035,-446,-1129,-219,23864,25195,79217,84571,36361, 155944.200, 40.0104927,-105.2442613, 1605.909,1627.237, 10.007,9.673
1721675923.198551,-53,27,1026,-621,-1339,-902
1721675923.207801,-54,33,1022,-831,-1365,-1497
1721675923.217051,-55,39,1019,-1050,-1182,-1917
1721675923.226301,-52,38,1016,-1058,-1085,-1969
1721675923.235551,-47,44,1016,-1085,-884,-1768
1721675923.244801,-47,48,1022,-1120,-823,-1435
1721675923.254051,-48,46,1022,-1015,-770,-604
1721675923.263306,-51,35,1021,-682,-805,350,23834,25256,79187
1721675923.272556,-55,35,1024,-463,-665,1015
1721675923.281806,-52,35,1026,-481,-385,708
1721675923.291056,-55,35,1025,-463,0,17
1721675923.300306,-49,38,1027,-306,218,-123
1721675923.309556,-43,44,1030,-271,525,-473
1721675923.318806,-38,45,1031,-315,822,-543
1721675923.328056,-31,43,1029,-236,892,-289
1721675923.337311,-30,49,1027,-26,822,-263,23883,25109,79138,84571,36358, 155944.300, 40.0104918,-105.2442625, 1605.669,1626.997, 9.839,9.526
1721675923.346561,-29,45,1024,35,665,-464
1721675923.355811,-32,49,1029,202,673,-298
1721675923.365061,-34,45,1030,359,498,-175
1721675923.374311,-35,37,1028,613,332,26
1721675923.383561,-40,36,1027,718,175,350
1721675923.392811,-48,41,1029,744,8,183
1721675923.402061,-47,39,1026,718,43,70
1721675923.411347,-43,36,1022,692,131,481,,,,84578,36365, 155944.400, 40.0104906,-105.2442638, 1605.402,1626.730, 9.666,9.379
1721675923.420597,-44,41,1019,578,183,805
1721675923.429847,-47,51,1018,385,245,568
1721675923.439097,-42,51,1018,342,210,385
1721675923.448347,-36,45,1018,464,227,603
1721675923.457597,-36,38,1020,587,140,1015
1721675923.466847,-41,36,1022,639,-44,1067
1721675923.476097,-47,28,1024,674,-429,805
1721675923.485352,-54,20,1026,622,-665,507,23834,25158,79138,84570,36365, 155944.500, 40.0104898,-105.2442651, 1605.118,1626.446, 9.501,9.239
1721675923.494602,-55,21,1029,377,-805,17
1721675923.503852,-57,19,1029,70,-692,-447
1721675923.513102,-53,20,1028,-245,-587,-797
1721675923.522352,-55,25,1025,-577,-447,-980
1721675923.531602,-53,29,1024,-866,-368,-1313
1721675923.540852,-52,33,1023,-1067,-210,-1269
1721675923.550102,-55,41,1024,-1093,-88,-910
1721675923.559510,-56,42,1026,-1172,-62,-587,23828,25134,79168
1721675923.568760,-53,41,1026,-1111,8,-438
1721675923.578010,-46,39,1025,-1067,218,-709
1721675923.587260,-45,39,1023,-936,297,-1182
1721675923.596510,-42,38,1018,-796,367,-1330
1721675923.605760,-44,40,1018,-831,446,-1348
1721675923.615010,-38,40,1019,-805,446,-1252
1721675923.624260,-33,40,1023,-743,533,-1155
1721675923.633393,-31,35,1023,-647,612,-989,23846,25292,79125,84575,36367, 155944.600, 40.0104890,-105.2442662, 1604.765,1626.093, 9.345,9.104
1721675923.642647,-30,34,1022,-586,455,-674
1721675923.651901,-33,39,1021,-621,393,-307
1721675923.661155,-38,49,1021,-560,218,-53
1721675923.670409,-35,53,1022,-472,113,358
1721675923.679663,-38,49,1021,-131,61,1050
1721675923.688917,-45,47,1021,184,-88,1233
1721675923.698171,-47,46,1017,499,-237,953
1721675923.707489,-45,44,1015,709,-184,770,23767,25152,79101,84577,36369, 155944.700, 40.0104884,-105.2442670, 1604.515,1625.843, 9.201,8.977
1721675923.716739,-46,48,1018,893,-79,805
1721675923.725989,-47,44,1018,1129,-70,761
1721675923.735239,-45,37,1018,1383,-105,936
1721675923.744489,-47,37,1022,1575,-88,901
1721675923.753739,-52,30,1023,1602,-105,516
1721675923.762989,-51,24,1025,1645,-202,341
1721675923.772239,-48,18,1024,1654,-132,437
1721675923.781494,-50,18,1024,1400,-18,271,,,,,, 155944.800, 40.0104867,-105.2442679, 1604.276,1625.604, 9.066,8.858
1721675923.790748,-50,21,1022,1120,96,70
1721675923.800002,-52,28,1022,823,140,-184
1721675923.809256,-50,33,1026,543,122,-377
1721675923.818510,-45,32,1030,272,288,-412
1721675923.827764,-41,29,1032,97,262,-359
1721675923.837018,-46,26,1032,-87,105,-744
1721675923.846272,-48,27,1030,-332,-27,-1260
1721675923.855530,-41,30,1027,-656,-35,-1820,23779,25140,79150,84578,36374
1721675923.864780,-43,37,1025,-936,43,-1820
1721675923.874030,-46,40,1024,-1050,-97,-1645
1721675923.883280,-44,42,1024,-1198,-97,-1339
1721675923.892530,-40,46,1023,-1216,17,-665
1721675923.901780,-42,48,1026,-1225,122,-517
1721675923.911030,-40,41,1024,-1111,105,-665
1721675923.920280,-38,45,1023,-927,140,-770
1721675923.929535,-36,46,1021,-927,271,-727,23773,25372,79162,84568,36363, 155944.900, 40.0104851,-105.2442690, 1604.092,1625.420, 8.939,8.742
1721675923.938785,-35,48,1020,-761,262,-875
1721675923.948035,-38,51,1022,-516,105,-630
1721675923.957285,-42,48,1021,-288,0,-438
1721675923.966535,-42,47,1020,-52,43,-27
1721675923.975785,-42,41,1019,219,96,472
1721675923.985035,-45,39,1022,569,70,691
1721675923.994285,-51,38,1027,700,61,822
1721675924.003540,-55,31,1029,735,26,700,23785,25390,79217,84578,36372, 155945.000, 40.0104832,-105.2442706, 1603.868,1625.196, 8.826,8.644
1721675924.012790,-51,23,1030,744,131,490
1721675924.022040,-51,18,1030,832,262,175
1721675924.031290,-52,20,1028,674,446,-237
1721675924.040540,-52,21,1026,385,568,-587
1721675924.049790,-52,28,1025,228,673,-657
1721675924.059040,-52,30,1025,44,752,-657
1721675924.068290,-50,33,1024,-183,962,-858
1721675924.077545,-47,37,1025,-393,1085,-1024,23852,25372,79162,,, 155945.100, 40.0104811,-105.2442722, 1603.680,1625.008, 8.722,8.549
1721675924.086795,-45,41,1026,-463,1093,-1050
1721675924.096045,-45,42,1027,-498,1085,-1050
1721675924.105295,-48,37,1028,-542,1023,-1120
1721675924.114545,-52,35,1029,-507,997,-1182
1721675924.123795,-55,33,1026,-542,927,-1505
1721675924.133045,-51,36,1024,-665,936,-2118
1721675924.142295,-48,38,1023,-875,1128,-2652
1721675924.151581,-42,39,1021,-953,1155,-2809,23919,25451,79077,84578,36374
1721675924.160831,-35,43,1020,-988,1181,-2573
1721675924.170081,-29,48,1018,-953,1155,-2284
1721675924.179331,-25,51,1018,-953,1067,-2039
1721675924.188581,-24,55,1019,-901,778,-1715
1721675924.197831,-24,54,1022,-691,341,-1400
1721675924.207081,-24,51,1020,-507,70,-1269
1721675924.216331,-31,49,1016,-227,-175,-1050
1721675924.225586,-40,53,1017,27,-490,-963,,,,84577,36376, 155945.200, 40.0104787,-105.2442738, 1603.466,1624.794, 8.622,8.458
1721675924.234836,-45,52,1017,307,-797,-963
1721675924.244086,-46,47,1015,665,-788,-753
1721675924.253336,-48,42,1016,919,-744,-700
1721675924.262586,-47,41,1019,1138,-639,-797
1721675924.271836,-46,42,1022,1322,-534,-945
1721675924.281086,-46,42,1023,1453,-350,-770
1721675924.290336,-47,38,1024,1619,-167,-429
1721675924.299591,-50,35,1026,1934,-140,-245,23931,25122,79168,84576,36374, 155945.300, 40.0104763,-105.2442750, 1603.243,1624.571, 8.527,8.369
1721675924.308841,-52,33,1029,2013,0,-193
1721675924.318091,-59,32,1030,2004,166,-674
1721675924.327341,-61,27,1028,1925,420,-1278
1721675924.336591,-59,24,1026,1864,700,-1794
1721675924.345841,-56,24,1028,1943,840,-1969
1721675924.355091,-57,25,1027,1689,1093,-2083
1721675924.364341,-53,26,1025,1392,1286,-2284
1721675924.373688,-48,25,1026,1182,1522,-2284,24053,25030,79180,,, 155945.400, 40.0104740,-105.2442764, 1603.071,1624.398, 8.434,8.283
1721675924.382938,-41,28,1025,902,1653,-2337
1721675924.392188,-38,33,1026,525,1706,-2310
1721675924.401438,-38,31,1025,298,1618,-2083
1721675924.410688,-39,33,1024,97,1452,-1812
1721675924.419938,-42,37,1024,-157,1373,-1943
1721675924.429188,-39,39,1026,-428,1295,-2520
1721675924.438438,-30,40,1025,-542,1347,-2555
1721675924.447693,-29,41,1027,-516,1277,-2415,24218,24975,79016,84578,36372
1721675924.456943,-29,45,1027,-568,988,-2582
1721675924.466193,-27,43,1028,-603,840,-2564
1721675924.475443,-25,45,1027,-568,533,-2494
1721675924.484693,-27,42,1027,-385,210,-2205
1721675924.493943,-30,35,1026,-297,-88,-1873
1721675924.503193,-29,35,1023,-358,-298,-1785
1721675924.512443,-33,35,1024,-385,-482,-1497
1721675924.521698,-38,35,1023,-402,-630,-1042,24249,24975,79095,84572,36383, 155945.500, 40.0104717,-105.2442776, 1602.853,1624.181, 8.351,8.201
1721675924.530948,-43,35,1023,-455,-709,-674
1721675924.540198,-48,35,1023,-586,-630,-552
1721675924.549448,-52,38,1023,-638,-447,-683
1721675924.558698,-49,36,1023,-630,-245,-937
1721675924.567948,-47,39,1024,-525,105,-1024
1721675924.577198,-47,38,1027,-481,341,-972
1721675924.586448,-50,37,1026,-358,402,-1085
1721675924.595703,-48,34,1026,-262,525,-1392,24310,25018,79010,84580,36385, 155945.600, 40.0104697,-105.2442787, 1602.667,1623.995, 8.270,8.122
1721675924.604953,-44,34,1026,-183,708,-1680
1721675924.614203,-41,35,1022,-245,901,-1995
1721675924.623453,-42,34,1020,-236,1015,-2048
1721675924.632703,-44,35,1020,-218,1102,-1444
1721675924.641953,-47,37,1023,-175,1181,-797
1721675924.651203,-46,38,1024,-253,1338,-805
1721675924.660453,-36,36,1027,-192,1487,-1015
1721675924.669739,-34,34,1028,-70,1618,-1068
1721675924.678989,-38,32,1026,-131,1566,-1339
1721675924.688239,-37,31,1022,-96,1548,-1392
1721675924.697489,-36,35,1021,-166,1443,-1654
1721675924.706739,-33,40,1018,-245,1391,-1934
1721675924.715989,-29,41,1017,-350,1417,-1812
1721675924.725239,-24,42,1020,-411,1417,-1479
1721675924.734489,-23,45,1025,-385,1242,-1120
1721675924.743866,-25,44,1026,-385,1032,-779,24456,25042,79028,84575,36380, 155945.700, 40.0104686,-105.2442796, 1602.528,1623.856, 8.192,8.047
1721675924.753116,-24,42,1026,-323,787,-639
1721675924.762366,-28,46,1023,-227,525,-683
1721675924.771616,-33,47,1021,-87,350,-692
1721675924.780866,-35,43,1020,97,166,-788
1721675924.790116,-34,43,1022,158,140,-989
1721675924.799366,-31,41,1022,184,70,-1103
1721675924.808616,-27,34,1020,280,-70,-1015
1721675924.817749,-25,31,1019,359,-158,-639,24450,25195,79064,84574,36383, 155945.800, 40.0104677,-105.2442805, 1602.423,1623.751, 8.117,7.973
1721675924.827003,-30,34,1020,184,-298,-237
1721675924.836257,-39,35,1018,70,-420,-18
1721675924.845511,-40,32,1019,27,-569,96
1721675924.854765,-36,34,1018,-70,-543,-184
1721675924.864019,-35,34,1021,-157,-368,-525
1721675924.873273,-35,30,1023,-113,-350,-447
1721675924.882527,-33,30,1026,-43,-464,-280
1721675924.891785,-36,33,1029,-61,-464,-333,24395,25347,79071,84571,36378, 155945.900, 40.0104667,-105.2442813, 1602.325,1623.653, 8.043,7.902
1721675924.901039,-38,36,1031,-218,-447,-692
1721675924.910293,-40,35,1029,-183,-455,-753
1721675924.919547,-37,33,1027,-201,-403,-525
1721675924.928801,-34,35,1026,-236,-280,-368
1721675924.938055,-36,37,1026,-332,-175,-79
1721675924.947309,-38,39,1026,-288,-149,315
1721675924.956563,-41,38,1025,-297,-70,367
1721675924.965790,-37,37,1022,-341,96,210,24456,25286,79040
1721675924.975040,-38,40,1023,-393,210,35
1721675924.984290,-39,41,1020,-385,183,-237
1721675924.993540,-36,42,1018,-411,227,-412
1721675925.002790,-34,43,1018,-402,332,-105
1721675925.012040,-34,44,1019,-455,332,236
1721675925.021290,-35,40,1022,-367,271,446
1721675925.030540,-36,35,1022,-350,140,953
1721675925.039795,-35,33,1025,-332,52,1085,,,,84581,36387, 155946.000, 40.0104657,-105.2442820, 1602.202,1623.530, 7.978,7.835
1721675925.049045,-30,35,1026,-437,0,490
1721675925.058295,-27,32,1026,-332,-280,8
1721675925.067545,-30,30,1023,-376,-482,113
1721675925.076795,-32,32,1022,-630,-420,-35
1721675925.086045,-31,36,1023,-752,-578,-140
1721675925.095295,-30,38,1025,-901,-718,-70
1721675925.104545,-31,38,1025,-945,-893,-219
1721675925.114014,-34,41,1022,-1058,-928,-595,24377,25445,79162,84575,36389, 155946.100, 40.0104645,-105.2442828, 1602.071,1623.399, 7.913,7.769
1721675925.123264,-30,47,1023,-1111,-980,-788
1721675925.132514,-29,50,1024,-980,-1015,-385
1721675925.141764,-33,52,1026,-866,-1059,-9
1721675925.151014,-37,45,1025,-708,-998,271
1721675925.160264,-41,42,1023,-481,-1033,323
1721675925.169514,-45,40,1021,-245,-1007,227
1721675925.178764,-47,40,1021,-201,-840,-35
1721675925.188019,-43,39,1020,-236,-525,-184,24371,25146,79003,84582,36380, 155946.200, 40.0104634,-105.2442837, 1601.901,1623.229, 7.850,7.706
1721675925.197269,-38,40,1022,-201,-263,-35
1721675925.206519,-34,39,1025,-122,0,227
1721675925.215769,-28,40,1026,-26,87,446
1721675925.225019,-25,43,1026,-70,236,630
1721675925.234269,-24,39,1026,53,183,813
1721675925.243519,-29,39,1026,202,96,857
1721675925.252769,-34,38,1025,219,-70,665
1721675925.262024,-41,36,1023,254,-272,437,24340,25158,79034
1721675925.271274,-43,36,1022,263,-359,113
1721675925.280524,-43,36,1021,272,-350,-149
1721675925.289774,-43,37,1021,132,-263,-175
1721675925.299024,-39,39,1021,27,-105,17
1721675925.308274,-38,41,1022,-17,-105,245
1721675925.317524,-39,40,1024,-70,0,446
1721675925.326774,-35,39,1025,-61,-35,831
1721675925.336029,-33,41,1026,-52,43,971,24334,25085,78912,84579,36387, 155946.300, 40.0104620,-105.2442843, 1601.755,1623.083, 7.788,7.643
1721675925.345279,-37,40,1026,-52,17,840
1721675925.354529,-37,38,1027,-35,-70,708
1721675925.363779,-34,39,1028,-113,-149,411
1721675925.373029,-34,37,1027,-201,-158,-228
1721675925.382279,-30,41,1024,-192,-254,-630
1721675925.391529,-33,44,1023,-315,-307,-394
1721675925.400779,-38,49,1022,-437,-368,-280
1721675925.410065,-42,52,1021,-358,-464,-167,24334,25183,79138,84574,36383, 155946.400, 40.0104605,-105.2442848, 1601.586,1622.914, 7.728,7.583
1721675925.419315,-41,53,1021,-192,-482,-280
1721675925.428565,-35,50,1026,-8,-359,-184
1721675925.437815,-32,43,1028,114,-149,-114
1721675925.447065,-29,41,1027,280,-114,-167
1721675925.456315,-32,40,1025,508,-132,-9
1721675925.465565,-39,39,1024,604,-158,113
1721675925.474815,-43,38,1022,569,-123,122
1721675925.484070,-45,35,1019,622,35,297,,,,84574,36391, 155946.500, 40.0104592,-105.2442850, 1601.435,1622.763, 7.670,7.525
1721675925.493320,-45,34,1018,630,43,341
1721675925.502570,-41,36,1019,630,262,236
1721675925.511820,-38,36,1022,464,420,367
1721675925.521070,-35,35,1025,403,446,376
1721675925.530320,-34,35,1027,315,402,262
1721675925.539570,-33,40,1026,193,385,-35
1721675925.548820,-33,44,1026,140,411,-105
1721675925.558228,-35,46,1023,237,367,17,24322,25244,79034
1721675925.567478,-35,47,1022,385,271,8
1721675925.576728,-31,43,1023,517,227,43
1721675925.585978,-33,43,1024,683,201,323
1721675925.595228,-39,39,1026,858,35,367
1721675925.604478,-39,37,1026,972,-70,297
1721675925.613728,-37,36,1027,919,-70,245
1721675925.622978,-35,33,1027,875,-35,245
1721675925.632111,-32,34,1026,849,-9,113,24359,25201,79071,84575,36387, 155946.600, 40.0104581,-105.2442855, 1601.337,1622.665, 7.615,7.474
1721675925.641361,-29,34,1027,683,26,-114
1721675925.650611,-29,39,1027,534,-62,-132
1721675925.659861,-41,28,1026,368,-254,-114
1721675925.669111,-39,38,1025,394,-543,-53
1721675925.678361,-40,35,1023,88,-595,-560
1721675925.687611,-40,36,1025,-70,-525,-665
1721675925.696861,-45,39,1028,-192,-482,-289
1721675925.706116,-44,34,1030,-280,-438,-35,24291,25469,78979,84579,36389, 155946.700, 40.0104575,-105.2442859, 1601.248,1622.576, 7.562,7.424
1721675925.715366,-40,30,1032,-455,-315,-79
1721675925.724616,-39,31,1034,-621,-27,-167
1721675925.733866,-37,35,1033,-892,218,-543
1721675925.743116,-35,34,1029,-883,306,-832
1721675925.752366,-33,39,1025,-927,367,-1094
1721675925.761616,-36,44,1020,-988,490,-1304
1721675925.770866,-37,51,1016,-927,446,-1365
1721675925.780152,-34,51,1016,-708,463,-1339,24310,25469,78991,,, 155946.800, 40.0104564,-105.2442861, 1601.145,1622.473, 7.514,7.385
1721675925.789402,-25,52,1019,-490,516,-823
1721675925.798652,-21,52,1021,-271,542,-70
1721675925.807902,-25,47,1021,-113,498,376
1721675925.817152,-25,37,1021,158,306,603
1721675925.826402,-28,37,1021,324,175,630
1721675925.835652,-36,36,1022,359,43,306
1721675925.844902,-38,32,1021,324,-114,-307
1721675925.854157,-35,30,1019,412,-149,-797,24322,25354,79046,84570,36393
1721675925.863407,-30,35,1021,280,-140,-1155
1721675925.872657,-30,39,1020,123,-228,-1164
1721675925.881907,-34,40,1017,149,-394,-849
1721675925.891157,-33,42,1018,167,-534,-613
1721675925.900407,-24,42,1019,158,-595,-167
1721675925.909657,-20,46,1021,245,-709,533
1721675925.918907,-33,44,1021,315,-954,1452
1721675925.928192,-64,54,1018,482,-1182,2423,,,,84575,36387, 155946.900, 40.0104559,-105.2442868, 1601.118,1622.446, 7.470,7.347
1721675925.937442,-81,60,1015,604,-1138,2870
1721675925.946692,-88,69,1014,858,-595,1172
1721675925.955942,-86,88,1015,1287,43,-998
1721675925.965192,-75,86,1019,1794,647,-3772
1721675925.974442,-44,70,1021,2494,1286,-6195
1721675925.983692,-7,49,1022,3264,1758,-6537
1721675925.992942,10,39,1026,3877,1671,-6265
1721675926.002198,10,4,1032,4122,1076,-5504,24365,25115,79058,84566,36387, 155947.000, 40.0104555,-105.2442873, 1601.051,1622.379, 7.427,7.311
1721675926.011448,20,31,1040,4017,411,-5732
1721675926.020698,-11,67,1052,3430,-350,-5872
1721675926.029948,-4,-23,1033,3474,-1033,-8829
1721675926.039198,-4,-61,1023,3500,-1418,-11244
1721675926.048448,-158,109,1069,2284,-1689,-7508
1721675926.057698,-201,32,1079,1707,-1514,-35
1721675926.066948,-175,22,1091,3229,288,16073
1721675926.076203,-141,58,1085,2993,3298,13746,24627,24682,78973,,, 155947.100, 40.0104554,-105.2442882, 1601.038,1622.366, 7.386,7.275
1721675926.085453,-114,71,1061,2424,5626,1785
1721675926.094703,-50,64,1035,2503,7236,-7018
1721675926.103953,21,31,1016,2984,8478,-7237
1721675926.113203,59,14,1003,3422,8793,953
1721675926.122453,64,33,1016,3605,7848,11593
1721675926.131703,22,43,988,3290,6448,15470
1721675926.140953,-3,-40,992,3037,5232,8067
1721675926.150238,-66,-119,993,2345,3683,-1182,24896,24694,78881,84577,36400
1721675926.159488,-124,-109,997,805,3290,3421
1721675926.168738,33,28,999,-1452,4313,12302
1721675926.177988,55,32,1006,-3500,4952,8863
1721675926.187238,57,66,1009,-3946,3211,-10570
1721675926.196488,69,123,1004,-4173,1531,-15960
1721675926.205738,60,111,997,-3097,96,-7613
1721675926.214988,63,63,1010,-1102,-1182,1076
1721675926.224243,34,54,1021,560,-2398,8338,24688,24658,78930,84574,36396, 155947.200, 40.0104533,-105.2442887, 1600.833,1622.161, 7.325,7.210
1721675926.233493,-81,101,1023,1462,-4052,13895
1721675926.242743,-134,92,1012,2048,-4375,11515
1721675926.251993,-109,78,1011,2940,-3089,1347
1721675926.261243,-34,61,1023,3999,-1575,-1313
1721675926.270493,25,95,1039,5119,-490,1006
1721675926.279743,25,57,1041,6099,-482,997
1721675926.288993,9,22,1035,7359,-1164,-5417
1721675926.298249,-26,-1,1034,7980,-1785,-7342,,,,84571,36398, 155947.300, 40.0104509,-105.2442891, 1600.535,1621.863, 7.255,7.117
1721675926.307499,-42,-27,1037,8418,-2214,-2275
1721675926.316749,-48,-41,1052,8365,-2013,5197
1721675926.325999,-76,-63,1069,7832,-1540,9975
1721675926.335249,-112,-90,1074,6790,-788,9913
1721675926.344499,-90,-78,1073,5355,323,7770
1721675926.353749,-38,-61,1065,3527,1951,6501
1721675926.362999,15,-34,1053,1707,3132,2843
1721675926.372284,46,31,1035,27,3395,-3833,24652,24310,79138,,, 155947.400, 40.0104485,-105.2442897, 1600.248,1621.576, 7.165,7.001
1721675926.381538,39,76,1019,-1181,2765,-11655
1721675926.390792,13,87,1006,-1382,1706,-18437
1721675926.400046,-10,41,991,-848,630,-19679
1721675926.409300,-172,25,976,-61,131,-14788
1721675926.418554,-121,-35,971,53,70,-7132
1721675926.427808,-54,-12,986,-8,2222,-4647
1721675926.437062,-47,-41,985,-778,3228,630
1721675926.446350,-20,39,996,-1242,3648,813,24975,24139,79016,84574,36391
1721675926.455600,-2,79,994,-2073,3762,1120
1721675926.464850,38,92,998,-1382,3858,4103
1721675926.474100,57,124,999,-26,3368,5057
1721675926.483350,31,122,1009,1742,2476,9143
1721675926.492600,5,119,1012,3850,1303,12101
1721675926.501850,-22,119,1019,6047,682,15006
1721675926.511100,-70,101,1033,8147,481,17228
1721675926.520356,-56,89,1040,10255,945,15942,24932,23773,79119,84576,36391, 155947.500, 40.0104463,-105.2442903, 1600.072,1621.400, 7.081,6.915
1721675926.529606,-65,0,1040,11874,1767,8190
1721675926.538856,-72,-111,1040,13160,2555,1496
1721675926.548106,-171,-216,1036,13239,3587,5810
1721675926.557356,3,-265,1035,11725,5005,16590
1721675926.566606,152,-293,1039,8287,6527,18611
1721675926.575856,230,-273,1041,3465,5442,8181
1721675926.585106,166,-67,1056,-2266,2205,-5067
1721675926.594361,-7,196,1059,-7271,-2240,-14175,24835,24066,79180,84580,36393, 155947.600, 40.0104434,-105.2442912, 1599.880,1621.208, 6.971,6.810
1721675926.603615,-74,228,1018,-7971,-5005,-7053
1721675926.612869,-12,110,1012,-4943,-5023,1356
1721675926.622123,6,34,1016,-1951,-3789,4585
1721675926.631377,-55,-6,1013,-726,-3877,5670
1721675926.640631,-105,-40,1011,-367,-4262,6930
1721675926.649885,-118,-26,1005,-1006,-3544,4768
1721675926.659139,-103,11,992,-2371,-2170,-980
1721675926.668396,-67,113,996,-3255,-683,-5758,24670,23931,79302
1721675926.677646,34,168,1009,-3211,350,-7744
1721675926.686896,97,140,1017,-1435,761,-6370
1721675926.696146,126,76,1027,1339,-88,-1470
1721675926.705396,121,24,1031,3570,-1777,3613
1721675926.714646,70,-3,1042,4787,-3947,6405
1721675926.723896,25,-26,1046,5207,-5863,6676
1721675926.733146,-9,-50,1046,5067,-7009,2581
1721675926.742401,-42,-26,1045,4550,-7595,-2109,,,,84576,36396, 155947.700, 40.0104410,-105.2442920, 1599.709,1621.037, 6.865,6.709
1721675926.751651,-91,31,1051,3859,-7525,-4673
1721675926.760901,-155,-5,1050,3544,-6843,-5583
1721675926.770151,-70,-74,1042,4069,-5058,-10010
1721675926.779401,-15,-59,1032,4332,-3037,-4445
1721675926.788651,-37,-79,1021,3562,-2415,4401
1721675926.797901,-47,-78,1020,2827,-2424,4462
1721675926.807151,-72,-72,1027,1567,-2310,3613
1721675926.816407,-84,-65,1038,219,-2153,647,24407,23596,79486,84573,36398, 155947.800, 40.0104377,-105.2442928, 1599.635,1620.963, 6.739,6.558
1721675926.825657,-78,-37,1051,-1058,-1890,-2905
1721675926.834907,-36,-35,1052,-2170,-1278,-4673
1721675926.844157,-22,-4,1050,-2975,-814,-6327
1721675926.853407,-15,10,1043,-3648,-1042,-6099
1721675926.862657,-16,17,1028,-3850,-1112,-3955
1721675926.871907,-20,13,1010,-3920,-1182,-359
1721675926.881157,-27,18,1002,-3972,-1129,1986
1721675926.890442,-22,1,995,-3981,-945,3998,24334,23718,79479,84576,36402, 155947.900, 40.0104309,-105.2442915, 1599.247,1620.575, 6.535,6.370
1721675926.899692,-37,2,990,-4147,-797,3018
1721675926.908942,-48,16,983,-4541,-630,-193
1721675926.918192,-62,2,975,-4698,-333,-1190
1721675926.927442,-69,20,976,-4751,-18,-2967
1721675926.936692,-54,24,983,-4812,498,-4962
1721675926.945942,-28,55,1004,-4576,1172,-5985
1721675926.955192,-30,59,1018,-3867,1478,-5662
1721675926.964447,-18,36,1019,-2738,1128,-6099,24505,23687,79290
1721675926.973697,-34,20,1019,-1356,735,-5434
1721675926.982947,-56,28,1008,-262,393,-2958
1721675926.992197,-59,27,1002,482,358,-2485
1721675927.001447,-69,30,996,1225,577,-3107
1721675927.010697,-58,5,991,2004,910,-3745
1721675927.019947,-23,7,991,2634,1505,-4717
1721675927.029197,-29,-3,993,3080,1750,-4157
1721675927.038452,-26,-23,1005,3518,1566,-2844,24700,23516,79443,84573,36400, 155948.000, 40.0104243,-105.2442903, 1598.782,1620.110, 6.342,6.195
1721675927.047702,-31,-31,1017,3737,1443,-2118
1721675927.056952,-31,-27,1027,3527,1487,-1444
1721675927.066202,-60,-35,1022,3343,1461,-1978
1721675927.075452,-80,-37,1015,3185,1513,-2013
1721675927.084702,-19,-43,1007,2503,2178,-2949
1721675927.093952,0,-30,1004,1794,2765,-1987
1721675927.103202,-5,-14,1003,928,2633,-1357
1721675927.112458,-17,-7,996,193,2126,-3290,24792,23132,79406,84571,36398, 155948.100, 40.0104197,-105.2442900, 1598.375,1619.703, 6.162,6.032
1721675927.121708,8,24,996,-455,1811,-4515
1721675927.130958,14,38,1006,-717,1330,-4830
1721675927.140208,11,26,1020,-262,472,-4647
1721675927.149458,2,13,1031,245,-315,-4752
1721675927.158708,-16,0,1044,560,-972,-4410
1721675927.167958,-22,-36,1048,954,-1488,-3317
1721675927.177208,-18,-40,1047,1024,-1785,-3308
1721675927.186585,-9,-29,1044,403,-1847,-3010,,,,84573,36400, 155948.200, 40.0104164,-105.2442895, 1598.046,1619.374, 6.017,5.887
1721675927.195835,-27,-38,1042,-420,-1829,-3080
1721675927.205085,-44,-16,1038,-848,-1812,-2529
1721675927.214335,-64,3,1040,-1461,-1453,-3159
1721675927.223585,-86,30,1041,-1671,-910,-4445
1721675927.232835,-46,55,1036,-1513,70,-5425
1721675927.242085,-21,71,1037,-638,1128,-6012
1721675927.251335,0,73,1026,429,1408,-6502
1721675927.260590,-2,60,1021,1759,1522,-6003,24877,22998,79437
1721675927.269840,-10,42,1027,3089,1225,-5434
1721675927.279090,6,34,1043,4218,1155,-3850
1721675927.288340,12,17,1064,5172,1041,-1365
1721675927.297590,17,-14,1084,5889,945,962
1721675927.306840,8,-36,1103,6169,875,2563
1721675927.316090,0,-56,1119,5985,700,3001
1721675927.325340,-26,-82,1134,5382,560,2642
1721675927.334595,-43,-128,1135,4235,533,595,25012,22595,79473,84576,36393, 155948.300, 40.0104130,-105.2442890, 1597.765,1619.093, 5.846,5.725
1721675927.343845,-64,-127,1131,2380,726,-2459
1721675927.353095,-48,-89,1125,-210,953,-6108
1721675927.362345,-40,-64,1118,-2747,1295,-8847
1721675927.371595,-43,-49,1111,-4821,1548,-10422
1721675927.380845,-34,-30,1102,-6702,2056,-11008
1721675927.390095,-23,-22,1087,-8172,2493,-10850
1721675927.399345,-29,-22,1076,-9336,2940,-9888
1721675927.408631,-23,-19,1064,-10508,3403,-8330,25573,23217,79132,84572,36402, 155948.400, 40.0104085,-105.2442876, 1597.473,1618.801, 5.682,5.572
1721675927.417881,-29,-25,1058,-11488,3963,-6887
1721675927.427131,-38,-81,1053,-12416,4558,-5259
1721675927.436381,-54,-12,1043,-13597,5232,-3518
1721675927.445631,-47,-19,1029,-15216,5915,-2083
1721675927.454881,-40,-20,1019,-15907,6938,-2275
1721675927.464131,-17,5,1013,-16738,7621,-578
1721675927.473381,-49,56,1015,-17517,8050,-2389
1721675927.482636,11,75,1002,-17648,8356,-4445,26098,24572,78790,,, 155948.500, 40.0104030,-105.2442860, 1597.077,1618.405, 5.532,5.431
1721675927.491886,69,132,991,-16765,8627,-4017
1721675927.501136,76,144,990,-15426,8190,-2389
1721675927.510386,83,142,987,-13055,7131,1312
1721675927.519636,30,112,1002,-10368,5652,6370
1721675927.528886,-26,100,1002,-7726,4147,9065
1721675927.538136,78,66,982,-5381,3736,11532
1721675927.547386,91,23,973,-2957,3745,8968
1721675927.556641,67,61,976,-1732,2301,8618,,,,84574,36402
1721675927.565891,52,59,971,-831,910,10237
1721675927.575141,24,63,965,342,-105,9397
1721675927.584391,-1,33,959,1295,-972,9808
1721675927.593641,-20,21,960,1899,-1400,8435
1721675927.602891,-32,16,957,1890,-1619,5311
1721675927.612141,-29,52,950,1803,-1575,2231
1721675927.621391,-9,85,963,1759,-1357,901
1721675927.630677,-7,88,957,2223,-1418,-210,25970,24621,78668,84576,36402, 155948.600, 40.0103992,-105.2442837, 1596.722,1618.050, 5.392,5.295
1721675927.639927,48,16,949,3194,-1785,-324
1721675927.649177,-35,45,964,4148,-2652,-35
1721675927.658427,-107,121,981,4183,-4227,-910
1721675927.667677,-78,55,969,5189,-4165,1155
1721675927.676927,-45,-24,952,7027,-3212,4733
1721675927.686177,31,1,965,7429,-2608,6361
1721675927.695427,10,45,985,6703,-2494,3333
1721675927.704682,23,40,988,6782,-3395,5486,25689,24102,78936,84573,36411, 155948.700, 40.0103954,-105.2442818, 1596.445,1617.773, 5.260,5.167
1721675927.713932,0,27,995,7657,-3938,7367
1721675927.723182,-28,22,1006,8243,-4349,9467
1721675927.732432,-36,-5,1012,8759,-4384,12442
1721675927.741682,-31,-2,1014,9214,-3982,13510
1721675927.750932,-41,0,1017,9310,-3570,11585
1721675927.760182,-48,-17,1022,9328,-3299,8828
1721675927.769432,-35,-133,1028,9328,-2835,6842
1721675927.778687,-115,-216,1046,8654,-2398,1793,25433,23565,79138,,, 155948.800, 40.0103931,-105.2442812, 1596.339,1617.666, 5.144,5.043
1721675927.787937,-126,-159,1066,5959,-2048,-3658
1721675927.797187,-97,-99,1075,2415,-578,-8777
1721675927.806437,-164,83,1065,-61,936,-13685
1721675927.815687,-8,-11,1037,-726,2371,-12242
1721675927.824937,62,-21,1026,604,4620,-5259
1721675927.834187,2,-15,1031,385,4646,-2783
1721675927.843437,-35,27,1030,-140,3666,-3570
1721675927.852784,-27,16,1026,-26,3543,-770,25854,23309,79046,84571,36400
1721675927.862038,-4,35,1017,324,4112,-2415
1721675927.871292,24,87,1014,525,4497,-1147
1721675927.880546,52,109,1008,1234,4576,2231
1721675927.889800,73,71,1012,2757,4235,3972
1721675927.899054,39,47,1021,4349,3543,2668
1721675927.908308,22,34,1031,5382,2747,1225
1721675927.917562,13,8,1023,6064,2388,-482
1721675927.926819,13,-31,1015,6668,2100,-2372,25921,23016,79168,84575,36411, 155948.900, 40.0103897,-105.2442796, 1595.928,1617.256, 5.026,4.927
1721675927.936069,29,-21,1012,6948,1758,-2407
1721675927.945319,15,-1,1011,6668,1426,-350
1721675927.954569,-4,-21,1013,6685,927,2922
1721675927.963819,-29,-36,1025,6843,525,4795
1721675927.973069,-1,-73,1031,6572,516,4138
1721675927.982319,32,-67,1034,5863,673,3447
1721675927.991569,31,-72,1045,4909,437,5328
1721675928.000824,10,-71,1051,4025,-263,3491,,,,84575,36411, 155949.000, 40.0103868,-105.2442783, 1595.621,1616.949, 4.923,4.829
1721675928.010074,-5,-50,1050,2958,-937,1303
1721675928.019324,0,-32,1043,1987,-1199,-228
1721675928.028574,18,-22,1037,1225,-1252,-508
1721675928.037824,26,3,1030,735,-1418,-639
1721675928.047074,37,11,1020,280,-1785,-1077
1721675928.056324,37,-11,1004,228,-2153,-1269
1721675928.065574,28,-16,997,272,-2547,-744
1721675928.074829,48,-25,996,62,-2975,1487,25756,22711,79174,84572,36404, 155949.100, 40.0103848,-105.2442764, 1595.208,1616.536, 4.830,4.737
1721675928.084083,85,-33,1003,-201,-3290,4908
1721675928.093337,51,-44,1016,-603,-4095,6930
1721675928.102591,14,-36,1031,-1338,-5215,4961
1721675928.111845,-17,-16,1050,-2030,-5810,5188
1721675928.121099,-35,2,1066,-2423,-5907,5853
1721675928.130353,-33,3,1071,-2502,-5443,5066
1721675928.139607,-26,3,1069,-2240,-4734,3246
1721675928.148865,-19,10,1060,-1846,-4122,2283,25415,22930,79327
1721675928.158115,-13,19,1056,-1417,-3632,2931
1721675928.167365,-11,14,1057,-866,-3054,3631
1721675928.176615,-18,-3,1058,-175,-2792,4541
1721675928.185865,-9,-10,1055,368,-2547,4856
1721675928.195115,-2,-33,1054,665,-2127,3088
1721675928.204365,8,-67,1055,814,-1847,997
1721675928.213615,-24,-57,1057,447,-1829,-2232
1721675928.222870,-37,-51,1068,-490,-2065,-6685,25360,22888,79345,84579,36409, 155949.200, 40.0103832,-105.2442752, 1594.893,1616.221, 4.740,4.642
1721675928.232120,-40,-67,1058,-1225,-1908,-8208
1721675928.241370,-33,-45,1044,-1863,-1322,-7788
1721675928.250620,-22,-10,1039,-2800,-744,-7587
1721675928.259870,-28,36,1015,-3438,-403,-6344
1721675928.269120,3,131,966,-3447,-149,-4603
1721675928.278370,7,69,951,-2633,192,-4419
1721675928.287620,-32,-3,970,-848,96,-4017
1721675928.296875,-62,-47,986,-8,8,306,25439,23101,79357,84577,36411, 155949.300, 40.0103808,-105.2442747, 1594.638,1615.966, 4.651,4.550
1721675928.306125,-77,-95,1006,-8,446,3613
1721675928.315375,-62,-83,1023,-735,1251,4068
1721675928.324625,-5,-39,1028,-2065,1995,3281
1721675928.333875,22,-7,1027,-3342,2292,595
1721675928.343125,8,30,1025,-4033,1881,-3885
1721675928.352375,4,34,1014,-4147,1233,-6843
1721675928.361625,54,14,1001,-3535,770,-6685
1721675928.370880,84,-5,998,-2800,70,-3019,25231,23327,79376
1721675928.380130,36,5,1005,-2555,-1278,358
1721675928.389380,-2,4,1006,-2502,-2835,2432
1721675928.398630,-27,-38,1007,-1986,-3413,5110
1721675928.407880,-19,-39,1019,-1671,-3212,7735
1721675928.417130,-18,-20,1033,-1916,-2765,8925
1721675928.426380,-13,-18,1044,-2170,-2652,9266
1721675928.435630,-14,-17,1053,-2003,-2660,9423
1721675928.444916,-23,12,1059,-2056,-2538,8942,,,,84577,36420, 155949.400, 40.0103786,-105.2442738, 1594.336,1615.664, 4.568,4.463
1721675928.454166,-16,37,1060,-2073,-2398,6667
1721675928.463416,-1,38,1056,-1758,-2065,4165
1721675928.472666,22,45,1049,-962,-1925,2362
1721675928.481916,17,25,1051,-131,-1812,1356
1721675928.491166,7,-10,1057,552,-1794,1111
1721675928.500416,-11,-36,1069,875,-1750,-884
1721675928.509666,-31,-35,1066,674,-1750,-2949
1721675928.519013,-34,-35,1046,62,-1418,-1549,25048,23437,79394,84571,36411, 155949.500, 40.0103772,-105.2442734, 1594.206,1615.534, 4.493,4.383
1721675928.528263,11,12,1042,-542,-797,953
1721675928.537513,53,17,1042,-1023,-245,5363
1721675928.546763,36,18,1043,-962,-560,4681
1721675928.556013,0,31,1045,-971,-1427,2222
1721675928.565263,-35,31,1042,-901,-2135,-937
1721675928.574513,-55,13,1039,-455,-2372,-3798
1721675928.583763,-38,27,1035,184,-2170,-2757
1721675928.593018,15,-18,1028,665,-1628,411,24987,23358,79412,84570,36415, 155949.600, 40.0103752,-105.2442733, 1594.067,1615.394, 4.425,4.312
1721675928.602272,30,-35,1027,1138,-1479,271
1721675928.611526,7,-66,1029,1050,-2302,2056
1721675928.620780,-43,-97,1032,517,-3282,2108
1721675928.630034,-97,-65,1036,-455,-3877,2677
1721675928.639288,-142,-63,1033,-1907,-3842,3683
1721675928.648542,-128,-69,1025,-2887,-2818,-963
1721675928.657796,-36,-45,1018,-3937,-1050,-4183
1721675928.667054,78,3,997,-4777,420,-1094,24645,23419,79461
1721675928.676308,210,28,972,-5180,595,1505
1721675928.685562,305,62,942,-5031,-1164,1058
1721675928.694816,261,0,937,-4488,-4979,385
1721675928.704070,253,56,940,-3990,-9827,-1488
1721675928.713324,184,55,939,-4007,-14683,-1794
1721675928.722578,-25,123,968,-3447,-18988,-4682
1721675928.731832,-188,58,1001,-2861,-21832,-10562
1721675928.741059,-380,38,1059,-1811,-21298,-22777,23840,23364,79589,84575,36418, 155949.700, 40.0103731,-105.2442728, 1593.853,1615.181, 4.356,4.235
1721675928.750309,-475,15,1088,-1032,-18332,-20607
1721675928.759559,-410,27,1093,245,-12513,-6580
1721675928.768809,-170,-33,1053,1409,-5434,3876
1721675928.778059,27,-75,1029,2844,323,15732
1721675928.787309,88,-26,1016,3194,2073,29828
1721675928.796559,55,-49,1024,2459,1277,29225
1721675928.805809,-3,-50,1037,1619,-499,11900
1721675928.815064,-57,-56,1057,648,-1960,-1567,,,,84581,36418, 155949.800, 40.0103717,-105.2442730, 1593.764,1615.092, 4.286,4.159
1721675928.824314,-116,-35,1069,-17,-2555,-4682
1721675928.833564,-153,-36,1076,-542,-1934,-4787
1721675928.842814,-206,-165,1065,-918,-534,-5504
1721675928.852064,-292,-92,1059,-2038,1487,-11892
1721675928.861314,-169,30,1039,-4655,4690,-17072
1721675928.870564,-26,35,1017,-5127,8505,-6370
1721675928.879814,78,50,1004,-4226,10727,1330
1721675928.889099,91,67,1003,-3526,10963,6877,24194,23443,79553,84576,36424, 155949.900, 40.0103705,-105.2442735, 1593.657,1614.985, 4.221,4.080
1721675928.898349,73,31,1004,-3001,9581,7008
1721675928.907599,50,-32,1008,-2353,7770,2633
1721675928.916849,1,-50,1013,-2345,6151,5810
1721675928.926099,2,-100,1010,-3010,5206,10018
1721675928.935349,38,-152,1008,-4060,4856,9887
1721675928.944599,99,-136,1015,-5897,4305,10858
1721675928.953849,123,-113,1021,-8496,2983,10220
1721675928.963105,133,-67,1023,-10806,743,4961,24310,24114,79333
1721675928.972355,87,77,1030,-12687,-2039,1155
1721675928.981605,23,217,1039,-13553,-4848,1032
1721675928.990855,-279,331,1062,-11996,-7053,2345
1721675929.000105,-397,191,1074,-8303,-7105,-2932
1721675929.009355,-390,130,1075,-3867,-2809,-16354
1721675929.018605,-220,97,1049,-770,3036,-7884
1721675929.027855,-76,44,1019,1628,8820,4532
1721675929.037110,40,18,988,3457,12127,8627,24645,24267,79156,84568,36413, 155950.000, 40.0103698,-105.2442744, 1593.591,1614.919, 4.165,4.019
1721675929.046360,149,-43,981,4060,13160,9458
1721675929.055610,191,-35,976,3562,12048,4628
1721675929.064860,192,-20,977,2459,9275,2817
1721675929.074110,120,-15,989,1497,5591,2047
1721675929.083360,55,25,1009,648,2213,446
1721675929.092610,-5,96,1035,-70,-97,-403
1721675929.101860,-44,83,1054,70,-1383,-403
1721675929.111115,-46,55,1056,1173,-1785,-3693,24584,24108,79235,84578,36415, 155950.100, 40.0103700,-105.2442753, 1593.633,1614.961, 4.115,3.961
1721675929.120365,-35,12,1044,2144,-1488,-3387
1721675929.129615,-7,-13,1025,2818,-1112,-202
1721675929.138865,2,-34,1008,2774,-683,2441
1721675929.148115,-22,-15,1002,2302,-718,5005
1721675929.157365,-112,-244,979,1549,-1094,7595
1721675929.166615,53,-316,953,359,-630,5985
1721675929.175865,73,-190,960,-3456,0,10115
1721675929.185211,74,-161,979,-7420,-1847,29382,23779,25097,79309,,, 155950.200, 40.0103707,-105.2442766, 1593.791,1615.119, 4.074,3.916
1721675929.194461,54,14,1000,-10053,-3710,33232
1721675929.203711,-1,181,1023,-11751,-5390,37660
1721675929.212961,-62,272,1035,-10990,-7000,37301
1721675929.222211,-144,248,1049,-7875,-7420,24167
1721675929.231461,-208,176,1057,-3858,-6659,8050
1721675929.240711,-197,92,1064,79,-4279,1627
1721675929.249961,-163,3,1056,2923,-1155,3167
1721675929.259217,-109,-80,1057,4550,1837,4751,,,,84572,36415
1721675929.268467,-74,-119,1050,4104,4068,-517
1721675929.277717,-19,-76,1044,2310,5626,-7237
1721675929.286967,42,-30,1034,97,6396,-10002
1721675929.296217,131,31,1025,-1356,6282,-11183
1721675929.305467,119,91,1021,-2213,5022,-7727
1721675929.314717,57,97,1013,-2056,2948,-167
1721675929.323967,-20,39,1008,-1015,1111,9301
1721675929.333222,-117,-59,1018,-61,236,16546,23999,25274,79254,84565,36420, 155950.300, 40.0103715,-105.2442777, 1593.924,1615.252, 4.038,3.878
1721675929.342472,-176,-68,1034,-577,560,14288
1721675929.351722,-163,-48,1044,-2502,2091,6396
1721675929.360972,-118,-11,1038,-4305,3920,-543
1721675929.370222,-27,38,1030,-5652,5670,-6055
1721675929.379472,105,76,1021,-6422,6868,-10177
1721675929.388722,158,81,1017,-5853,6553,-7622
1721675929.397972,124,73,1021,-4567,4296,1102
1721675929.407257,74,22,1019,-3307,1636,10368,24035,25750,79022,84575,36420, 155950.400, 40.0103721,-105.2442783, 1594.062,1615.390, 4.001,3.837
1721675929.416507,19,23,1021,-2327,-438,17220
1721675929.425757,-6,-4,1028,-1828,-1567,24123
1721675929.435007,-86,-43,1038,-1653,-2100,22190
1721675929.444257,-142,-22,1057,-2327,-2127,9616
1721675929.453507,-96,62,1056,-3587,-1085,-1952
1721675929.462757,13,106,1036,-3902,577,-5163
1721675929.472007,78,103,1012,-2695,1575,-6379
1721675929.481263,97,100,998,-1067,1216,-4340,23852,25872,79010,,, 155950.500, 40.0103722,-105.2442785, 1594.173,1615.501, 3.964,3.802
1721675929.490513,67,74,997,534,-35,3963
1721675929.499763,-10,24,1005,2100,-1549,11803
1721675929.509013,-76,11,1020,3010,-2459,15251
1721675929.518263,-114,3,1029,3185,-2319,16021
1721675929.527513,-106,-15,1027,2905,-1147,14078
1721675929.536763,-85,-12,1022,2485,446,10447
1721675929.546013,-66,-14,1021,1873,1811,6492
1721675929.555268,-53,-15,1017,1295,2861,4340,23822,25946,78912,84576,36422
1721675929.564518,-35,-14,1016,805,3578,2572
1721675929.573768,3,-4,1010,333,3946,1951
1721675929.583018,43,22,1013,-192,3648,2800
1721675929.592268,41,25,1021,-455,2843,3736
1721675929.601518,-9,23,1025,-341,1688,6728
1721675929.610768,-75,2,1028,-96,630,11471
1721675929.620018,-91,-25,1026,53,507,11672
1721675929.629303,-55,-43,1019,-271,1295,6361,23803,26177,78820,84569,36418, 155950.600, 40.0103724,-105.2442786, 1594.225,1615.553, 3.929,3.768
1721675929.638553,-35,-25,1012,-997,1995,1793
1721675929.647803,14,2,1012,-1750,2248,-587
1721675929.657053,40,4,1010,-2012,2178,-3395
1721675929.666303,36,35,1007,-1977,1426,-2494
1721675929.675553,26,49,1005,-1732,446,2073
1721675929.684803,-17,18,1017,-910,-534,4611
1721675929.694053,-59,16,1032,-157,-1400,4235
1721675929.703308,-63,4,1038,132,-1444,5818,,,,84572,36424, 155950.700, 40.0103729,-105.2442790, 1594.286,1615.614, 3.893,3.736
1721675929.712558,-26,-20,1033,333,-674,5958
1721675929.721808,29,-20,1025,394,166,3123
1721675929.731058,52,24,1020,70,288,1723
1721675929.740308,36,32,1018,-157,-333,3526
1721675929.749558,-2,25,1012,132,-1173,4733
1721675929.758808,-35,-5,1012,595,-1707,5713
1721675929.768058,-62,-30,1015,788,-1637,6273
1721675929.777314,-128,-78,1024,517,-980,7822,23583,26354,78948,,, 155950.800, 40.0103724,-105.2442787, 1594.292,1615.620, 3.860,3.706
1721675929.786564,-94,-37,1028,-245,78,9642
1721675929.795814,-4,-60,1034,-1540,1898,7490
1721675929.805064,53,23,1042,-2756,3062,5136
1721675929.814314,49,50,1049,-3841,2913,9721
1721675929.823564,3,65,1056,-3823,2091,10823
1721675929.832814,-44,86,1052,-3386,1286,12538
1721675929.842064,-53,33,1042,-2852,1155,14078
1721675929.851380,-4,16,1030,-2196,1706,11935,23437,26940,78717,84583,36420
1721675929.860634,26,20,1022,-2100,2432,12013
1721675929.869888,11,24,1023,-2327,2213,10552
1721675929.879142,-3,35,1026,-2388,1487,6308
1721675929.888396,12,41,1028,-2432,910,4987
1721675929.897650,49,56,1031,-2257,612,6168
1721675929.906904,75,57,1034,-1925,-88,7341
1721675929.916158,8,114,1040,-1260,-1427,8671
1721675929.925415,-10,71,1040,-332,-2669,9721,23004,27111,78704,84577,36418, 155950.900, 40.0103721,-105.2442787, 1594.301,1615.629, 3.827,3.675
1721675929.934665,-44,51,1031,1059,-3247,9205
1721675929.943915,-55,31,1021,2162,-3203,9458
1721675929.953165,-45,13,1011,2932,-2897,9126
1721675929.962415,-45,-5,1007,3308,-2555,9598
1721675929.971665,-36,-11,1011,3465,-2363,8478
1721675929.980915,-37,-6,1019,3360,-2293,7280
1721675929.990165,-50,-16,1028,3238,-2363,6352
1721675929.999420,-46,-25,1031,3185,-2328,6230,22711,27130,78790,84564,36418, 155951.000, 40.0103717,-105.2442782, 1594.279,1615.607, 3.795,3.647
1721675930.008670,-46,-17,1034,2967,-2092,6483
1721675930.017920,-50,-12,1031,2494,-1873,5451
1721675930.027170,-55,-6,1027,2092,-1602,3587
1721675930.036420,-71,-5,1019,1610,-1199,2590
1721675930.045670,-63,-11,1010,1304,-727,3990
1721675930.054920,-57,1,1004,963,-132,6037
1721675930.064170,-67,-7,999,490,402,5906
1721675930.073426,-64,21,1003,-96,700,4628
1721675930.082680,-42,43,1006,-621,1102,4646
1721675930.091934,-13,75,1010,-638,1513,4217
1721675930.101188,9,83,1016,-210,1566,5740
1721675930.110442,29,72,1021,604,1181,7708
1721675930.119696,16,28,1021,1733,306,11340
1721675930.128950,-31,-7,1023,2477,-814,14183
1721675930.138204,-68,-9,1025,2337,-1567,12687
1721675930.147461,-59,-14,1025,1628,-1698,7577,22436,27526,78735,84570,36424, 155951.100, 40.0103714,-105.2442778, 1594.246,1615.574, 3.767,3.625
1721675930.156711,-36,7,1022,910,-1365,1706
1721675930.165961,-22,30,1023,263,-1313,-1829
1721675930.175211,-21,52,1026,-271,-1558,-5758
1721675930.184461,-6,60,1027,-367,-2249,-8339
1721675930.193711,6,57,1026,-52,-2958,-8365
1721675930.202961,4,55,1027,438,-3632,-5338
1721675930.212211,-16,54,1029,989,-4200,-875
1721675930.221466,-39,34,1025,1645,-4647,3298,22106,27532,78833,84571,36420, 155951.200, 40.0103711,-105.2442776, 1594.202,1615.530, 3.741,3.603
1721675930.230716,-47,10,1020,2232,-4717,7927
1721675930.239966,-57,-13,1016,2424,-4384,11681
1721675930.249216,-88,-41,1023,2092,-3824,11777
1721675930.258466,-104,-43,1041,1418,-3115,7472
1721675930.267716,-93,-28,1052,429,-2153,1338
1721675930.276966,-63,-7,1059,-542,-1155,-4235
1721675930.286216,-16,19,1056,-1155,-193,-8208
1721675930.295471,15,44,1051,-1400,411,-9240,21966,27648,78857,84568,36424, 155951.300, 40.0103708,-105.2442771, 1594.185,1615.513, 3.715,3.582
1721675930.304721,9,66,1046,-1190,560,-6475
1721675930.313971,-5,59,1041,-630,507,-2240
1721675930.323221,-17,53,1035,27,533,822
1721675930.332471,-31,55,1027,578,665,2388
1721675930.341721,-38,35,1025,1120,866,3053
1721675930.350971,-43,10,1026,1549,1155,3867
1721675930.360221,-43,1,1031,1593,1575,3937
1721675930.369507,-36,6,1039,1252,1951,2563,22033,27703,78814
1721675930.378757,-24,14,1047,805,1837,-350
1721675930.388007,-21,23,1048,315,1575,-3544
1721675930.397257,-26,33,1044,-78,1111,-5907
1721675930.406507,-10,43,1036,-358,796,-6283
1721675930.415757,-9,39,1026,-367,595,-5268
1721675930.425007,-13,39,1018,-341,218,-4445
1721675930.434257,-43,39,1017,-411,-175,-4865
1721675930.443512,-55,37,1013,-507,-630,-6860,22094,27423,78802,84575,36418, 155951.400, 40.0103707,-105.2442768, 1594.178,1615.506, 3.693,3.562
1721675930.452762,-55,28,1008,-516,-893,-8059
1721675930.462012,-51,20,1001,-560,-718,-9310
1721675930.471262,-30,29,996,-848,-630,-10264
1721675930.480512,-15,45,993,-717,-1007,-10990
1721675930.489762,2,63,994,-717,-1470,-10920
1721675930.499012,-5,72,996,-332,-1960,-9363
1721675930.508262,-18,67,998,517,-2564,-7254
1721675930.517548,-44,46,1001,1488,-2897,-5907,,,,84575,36431, 155951.500, 40.0103707,-105.2442768, 1594.193,1615.521, 3.677,3.545
1721675930.526798,-37,16,1001,2363,-2827,-4760
1721675930.536048,-23,-12,1001,2940,-2380,-2678
1721675930.545298,-29,-18,1001,3115,-2100,-3614
1721675930.554548,-31,-4,1000,2905,-2030,-5749
1721675930.563798,-26,10,1005,2512,-1934,-6572
1721675930.573048,-14,24,1015,2328,-1619,-6545
1721675930.582298,-5,34,1023,2354,-1462,-6003
1721675930.591553,-5,48,1028,2687,-1444,-5259,21978,27270,78869,,, 155951.600, 40.0103707,-105.2442770, 1594.208,1615.536, 3.663,3.528
1721675930.600807,-10,58,1032,3063,-1523,-4410
1721675930.610061,-17,57,1027,3553,-1505,-4095
1721675930.619315,-25,48,1023,4297,-1409,-3387
1721675930.628569,-29,36,1025,5084,-1208,-2949
1721675930.637823,-43,73,1035,5530,-937,-3859
1721675930.647077,-51,40,1041,5863,-630,-7009
1721675930.656331,-7,2,1044,6528,-298,-14175
1721675930.665589,30,12,1049,6808,-228,-14910,22052,26733,79089,84572,36422
1721675930.674839,19,-9,1055,6677,-630,-11542
1721675930.684089,0,-6,1062,6510,-1523,-11095
1721675930.693339,-14,3,1061,5942,-2275,-9827
1721675930.702589,-15,3,1051,5443,-2713,-8225
1721675930.711839,-21,-10,1041,4962,-2870,-7097
1721675930.721089,-47,-26,1028,4445,-3037,-6659
1721675930.730339,-59,-31,1020,3807,-3124,-7718
1721675930.739594,-53,-15,1013,2844,-2862,-9083,21966,26354,79229,84574,36433, 155951.700, 40.0103706,-105.2442771, 1594.251,1615.579, 3.650,3.512
1721675930.748844,-58,6,1010,1969,-2617,-9092
1721675930.758094,-57,21,1007,1348,-2310,-8129
1721675930.767344,-31,6,1007,1217,-1698,-5679
1721675930.776594,-37,0,1018,1339,-1252,-3693
1721675930.785844,-59,4,1031,1077,-1147,-4043
1721675930.795094,-75,-17,1034,692,-1024,-6257
1721675930.804344,-64,-31,1037,508,-464,-9065
1721675930.813599,-56,-28,1034,-61,376,-11550,22259,26220,79180,84574,36433, 155951.800, 40.0103702,-105.2442768, 1594.240,1615.568, 3.636,3.496
1721675930.822849,-60,1,1031,-883,1181,-12810
1721675930.832099,-39,19,1023,-1373,1916,-13222
1721675930.841349,-16,57,1016,-1435,2520,-13878
1721675930.850599,-10,85,1010,-1102,2773,-12390
1721675930.859849,-17,80,1006,-183,2808,-10317
1721675930.869099,4,31,1005,1129,2878,-9022
1721675930.878349,2,-33,1014,2249,2756,-7263
1721675930.887635,-16,-7,1032,2407,1890,-6117,22662,25817,79260,84573,36431, 155951.900, 40.0103699,-105.2442770, 1594.235,1615.563, 3.622,3.480
1721675930.896885,-35,-18,1043,1969,1417,-8724
1721675930.906135,-43,0,1047,1637,1058,-12670
1721675930.915385,-36,11,1045,1243,822,-15567
1721675930.924635,-19,29,1038,1059,848,-17702
1721675930.933885,-5,28,1032,1077,840,-18358
1721675930.943135,-20,25,1031,1339,481,-17570
1721675930.952385,-43,7,1031,1637,-44,-14482
1721675930.961640,-62,-2,1033,1724,-307,-12382
1721675930.970890,-73,-30,1036,1427,-263,-12994
1721675930.980140,-76,-69,1039,937,-149,-15383
1721675930.989390,-89,-91,1049,53,70,-17378
1721675930.998640,-58,-62,1064,-1505,367,-15742
1721675931.007890,17,-97,1078,-2966,1023,-15628
1721675931.017140,45,-16,1084,-4305,813,-13388
1721675931.026390,21,37,1084,-5495,-350,-5784
1721675931.035645,4,69,1078,-5757,-1514,-3658,22900,25964,79180,84576,36435, 155952.000, 40.0103699,-105.2442772, 1594.235,1615.563, 3.608,3.465
1721675931.044895,-17,63,1067,-5223,-2179,-4997
1721675931.054145,-39,52,1057,-4427,-2477,-9538
1721675931.063395,-70,38,1042,-3745,-2477,-13475
1721675931.072645,-74,22,1027,-3193,-2118,-16188
1721675931.081895,-55,-3,1005,-2677,-989,-16722
1721675931.091145,-56,96,990,-2432,70,-13799
1721675931.100395,-62,59,991,-2152,840,-11332
1721675931.109680,-41,45,991,-866,1417,-18078,23352,25622,79107,84577,36437, 155952.100, 40.0103697,-105.2442767, 1594.180,1615.508, 3.597,3.451
1721675931.118930,-27,69,986,272,1723,-18279
1721675931.128180,-9,-6,981,1234,2038,-18603
1721675931.137430,21,-49,978,2258,2170,-20948
1721675931.146680,24,-76,978,2512,1828,-16258
1721675931.155930,-45,-65,984,1855,1163,-11113
1721675931.165180,-54,-92,991,744,367,-13125
1721675931.174430,-71,-62,994,-490,262,-22225
1721675931.183686,-81,-11,996,-1732,201,-20948,23791,25329,79095,84571,36437, 155952.200, 40.0103700,-105.2442765, 1594.124,1615.452, 3.587,3.438
1721675931.192936,-122,40,994,-2458,315,-18585
1721675931.202186,-129,33,995,-2476,822,-18008
1721675931.211436,-100,40,997,-1968,2152,-15838
1721675931.220686,-64,67,995,-1443,3683,-10238
1721675931.229936,-4,82,996,-778,4602,-7814
1721675931.239186,39,5,997,114,4821,-16608
1721675931.248436,89,60,1002,674,4147,-24605
1721675931.257752,78,49,1011,928,2598,-16494,23944,24694,79205
1721675931.267002,104,85,1022,1864,656,-10203
1721675931.276252,148,122,1021,2687,-1199,-7762
1721675931.285502,119,93,1021,3868,-3500,-11192
1721675931.294752,74,83,1023,5443,-6283,-15348
1721675931.304002,14,80,1022,6843,-8750,-12758
1721675931.313252,-20,41,1019,8392,-10107,-8750
1721675931.322502,-20,0,1018,9564,-10334,-7963
1721675931.331696,-32,0,1025,9984,-10290,-6467,,,,84575,36439, 155952.300, 40.0103697,-105.2442762, 1594.096,1615.424, 3.582,3.430
1721675931.340950,-84,0,1042,10063,-10264,-3150
1721675931.350204,-115,-30,1057,10212,-9870,-4909
1721675931.359458,-142,-54,1065,9800,-8812,-12898
1721675931.368712,-155,-108,1070,9153,-6939,-18638
1721675931.377966,-197,-258,1072,8357,-4795,-15523
1721675931.387220,-199,-361,1068,6528,-2267,-6449
1721675931.396474,-133,-342,1058,2389,918,1093
1721675931.405731,-64,-253,1044,-2940,3911,8058,23712,23822,79595,84573,36437, 155952.400, 40.0103696,-105.2442760, 1594.057,1615.385, 3.576,3.423
1721675931.414981,34,-150,1035,-7892,5486,14218
1721675931.424231,93,-75,1037,-12022,5976,9353
1721675931.433481,92,-28,1037,-15050,5118,-3719
1721675931.442731,71,35,1034,-16633,3228,-11270
1721675931.451981,56,116,1039,-16887,1505,-7254
1721675931.461231,49,209,1043,-15968,8,131
1721675931.470481,35,292,1043,-13737,-1112,936
1721675931.479737,-38,232,1048,-10290,-2048,-4358,23791,24688,79254,,, 155952.500, 40.0103698,-105.2442757, 1594.054,1615.382, 3.561,3.404
1721675931.488987,-112,226,1050,-5600,-2687,-1304
1721675931.498237,-150,162,1045,-1268,-1960,9651
1721675931.507487,-150,96,1037,2328,-35,10237
1721675931.516737,-123,63,1028,4900,2388,6930
1721675931.525987,-199,-33,1010,6362,4585,4760
1721675931.535237,-169,-102,996,6974,6711,3535
1721675931.544487,-39,-168,972,6082,9651,6107
1721675931.553742,-3,-150,964,4148,11515,9852,24188,24743,79034,84579,36437
1721675931.562992,29,-94,972,1637,11060,14201
1721675931.572242,57,-69,983,-1093,10246,12731
1721675931.581492,46,-37,998,-3237,8802,6903
1721675931.590742,41,7,1011,-4917,7113,1811
1721675931.599992,36,74,1020,-5713,5363,-1050
1721675931.609242,20,122,1041,-5696,3946,-1147
1721675931.618492,10,143,1047,-4550,2738,17
1721675931.627777,7,134,1040,-2616,1785,1583,24334,24694,79064,84581,36437, 155952.600, 40.0103698,-105.2442756, 1594.080,1615.408, 3.549,3.389
1721675931.637027,-18,76,1028,-350,988,1128
1721675931.646277,-20,36,1020,1505,253,1452
1721675931.655527,7,8,1011,2433,-35,2826
1721675931.664777,11,-23,1007,2713,-315,560
1721675931.674027,-7,-37,1011,2153,-902,-4305
1721675931.683277,-484,-248,1004,1015,-1383,-8050
1721675931.692527,-202,-115,1019,-1155,52,-13064
1721675931.701783,-81,-130,1013,-5311,5696,-34913,24523,25189,78887,84577,36437, 155952.700, 40.0103703,-105.2442756, 1594.115,1615.443, 3.540,3.378
1721675931.711033,166,-32,1009,-7070,8041,-35683
1721675931.720283,222,127,1009,-8443,8085,-17684
1721675931.729533,166,76,1002,-8233,4996,5083
1721675931.738783,157,-8,991,-6798,1487,10368
1721675931.748033,135,-94,994,-6221,-1479,14743
1721675931.757283,-21,-141,998,-6510,-4638,24395
1721675931.766533,-124,-8,1014,-8338,-7079,26678
1721675931.775788,-154,105,1035,-10631,-7035,23651,,,,,, 155952.800, 40.0103701,-105.2442755, 1594.113,1615.440, 3.533,3.369
1721675931.785038,-160,181,1047,-11007,-5417,8942
1721675931.794288,-151,239,1049,-9607,-3395,-6003
1721675931.803538,-95,248,1057,-6973,-1260,-10990
1721675931.812788,-39,232,1057,-3482,883,-8654
1721675931.822038,-21,181,1054,315,2047,-5268
1721675931.831288,-39,137,1054,3448,2327,-4778
1721675931.840538,-37,103,1046,5574,2152,-5679
1721675931.849884,-14,39,1026,7193,2196,-4822,24591,25256,78820,84576,36446
1721675931.859134,25,-46,1011,8234,2213,-2275
1721675931.868384,27,5,997,8190,2038,1890
1721675931.877634,31,46,997,7158,1400,10246
1721675931.886884,23,28,994,6843,323,11751
1721675931.896134,28,0,996,6965,-420,6737
1721675931.905384,18,-56,1001,7027,-1208,7070
1721675931.914634,12,-104,1017,6773,-2153,10911
1721675931.923889,-15,-122,1029,5364,-2975,9073,24353,25115,79010,84579,36437, 155952.900, 40.0103709,-105.2442756, 1594.144,1615.471, 3.524,3.355
1721675931.933139,-97,-141,1041,3133,-4130,1347
1721675931.942389,-106,-100,1049,587,-4533,-8917
1721675931.951639,-73,-96,1056,-1986,-3754,-15628
1721675931.960889,-80,34,1055,-3911,-2862,-17037
1721675931.970139,-60,117,1050,-5320,-2214,-11725
1721675931.979389,-1,142,1034,-4725,-1234,-7088
1721675931.988639,2,122,1018,-2843,-639,-1365
1721675931.997895,-12,67,1017,-936,-972,5136,24298,25115,78948,84576,36444, 155953.000, 40.0103709,-105.2442757, 1594.170,1615.498, 3.516,3.340
1721675932.007145,-48,34,1025,237,-1505,7752
1721675932.016395,-85,17,1025,727,-1890,8093
1721675932.025645,-85,0,1019,814,-1785,7288
1721675932.034895,-125,-44,1016,359,-1138,4217
1721675932.044145,-83,-14,1014,-612,-70,-1059
1721675932.053395,-55,36,1018,-1863,1277,-4034
1721675932.062645,18,-5,1019,-2301,2152,-6143
1721675932.071900,17,44,1022,-2301,2625,-6720,24481,25073,78924,,, 155953.100, 40.0103709,-105.2442755, 1594.186,1615.514, 3.505,3.324
1721675932.081150,-5,47,1040,-2607,2152,-3842
1721675932.090400,-33,65,1057,-2196,1321,-3570
1721675932.099650,-63,81,1059,-1478,997,-3850
1721675932.108900,-76,92,1055,-393,1190,-473
1721675932.118150,-39,-5,1038,1085,2318,3727
1721675932.127400,-16,-44,1012,2407,3403,5775
1721675932.136650,32,-57,996,2503,3736,10657
1721675932.145935,117,-201,986,1794,3447,11340,24188,25494,78948,84572,36435
1721675932.155185,44,-99,995,315,2257,10946
1721675932.164435,88,54,999,-2563,341,24893
1721675932.173685,97,39,1012,-3937,-1269,23222
1721675932.182935,62,33,1028,-3841,-3465,8391
1721675932.192185,-15,51,1036,-4287,-5670,-937
1721675932.201435,-97,73,1050,-4506,-7167,-6012
1721675932.210685,-146,34,1065,-4112,-7385,-10492
1721675932.219940,-188,33,1070,-3290,-6335,-11235,,,,84564,36435, 155953.200, 40.0103712,-105.2442755, 1594.162,1615.490, 3.489,3.301
1721675932.229190,-230,35,1075,-3185,-4332,-5443
1721675932.238440,-226,5,1064,-2695,-1969,-3229
1721675932.247690,-95,15,1068,-2257,1216,-3509
1721675932.256940,-27,-69,1077,-2117,4182,1260
1721675932.266190,-23,64,1067,-2467,4873,9826
1721675932.275440,29,12,1066,-3333,4978,12757
1721675932.284690,4,50,1067,-3491,4742,402
1721675932.293946,-38,110,1057,-4322,3911,-9100,24456,25543,78717,84577,36439, 155953.300, 40.0103708,-105.2442753, 1594.146,1615.474, 3.473,3.279
1721675932.303196,-75,94,1038,-4313,3587,-15689
1721675932.312446,-95,90,1007,-3377,4007,-21070
1721675932.321696,-88,93,988,-2485,4970,-20134
1721675932.330946,-35,25,981,-1601,6212,-20020
1721675932.340196,-6,-31,972,-997,7052,-22558
1721675932.349446,20,-62,972,-1260,6938,-22094
1721675932.358696,46,-33,962,-2388,6536,-18087
1721675932.367981,70,-45,949,-3613,5600,-12058,25158,25445,78411
1721675932.377231,42,46,942,-4348,4217,-6108
1721675932.386481,-20,34,924,-4830,2511,4471
1721675932.395731,-21,1,907,-4567,1610,6335
1721675932.404981,112,-45,908,-4410,1785,2563
1721675932.414231,247,-146,921,-4331,1181,1820
1721675932.423481,221,-25,971,-5171,-1785,9458
1721675932.432731,101,94,1012,-6956,-6397,16642
1721675932.441986,31,147,1049,-7586,-10203,7035,24707,25659,78540,84571,36439, 155953.400, 40.0103703,-105.2442746, 1594.097,1615.425, 3.457,3.257
1721675932.451236,-33,150,1078,-6632,-12163,-6817
1721675932.460486,-82,176,1102,-4847,-12837,-11883
1721675932.469736,-63,208,1127,-2913,-12312,-10868
1721675932.478986,-103,203,1123,-288,-11157,-13134
1721675932.488236,-86,169,1101,2625,-9783,-12215
1721675932.497486,-78,93,1075,5478,-7945,-5452
1721675932.506736,-72,-3,1049,7595,-6117,-1575
1721675932.516022,-27,-36,1024,8147,-4655,-2162,24365,25231,78820,84580,36446, 155953.500, 40.0103701,-105.2442745, 1594.104,1615.432, 3.443,3.245
1721675932.525276,16,-13,1011,7403,-3579,-1567
1721675932.534530,38,-2,1007,6257,-3282,-534
1721675932.543784,30,-24,1018,5224,-3667,752
1721675932.553038,-51,-60,1041,4192,-4349,5101
1721675932.562292,-132,-31,1068,2687,-4935,5320
1721675932.571546,-217,62,1085,744,-4507,-403
1721675932.580800,-245,119,1080,-350,-2940,-7132
1721675932.590058,-203,101,1064,-113,-79,-13012,,,,84574,36446, 155953.600, 40.0103694,-105.2442741, 1594.097,1615.425, 3.429,3.233
1721675932.599312,-285,-289,1008,989,3080,-18883
1721675932.608566,9,-181,980,875,6098,-21149
1721675932.617820,92,-23,953,-2975,9213,-22313
1721675932.627074,59,211,946,-4532,7813,8085
1721675932.636328,79,130,953,-4077,5906,31036
1721675932.645582,12,61,968,-1723,4742,28656
1721675932.654836,-49,73,979,-236,3491,27501
1721675932.664063,-151,164,1004,718,2712,34291,24505,25482,78656
1721675932.673313,-112,126,1017,2328,3368,46777
1721675932.682563,-80,-4,1027,4752,5433,53541
1721675932.691813,-58,-65,1027,6038,6755,58817
1721675932.701063,-6,-98,1024,5040,7700,51161
1721675932.710313,5,-67,1021,2984,7953,32226
1721675932.719563,37,-11,1022,770,7560,15041
1721675932.728813,77,64,1022,-1015,7026,4488
1721675932.738068,66,120,1031,-1837,5783,-202,24353,26074,78552,84572,36455, 155953.700, 40.0103695,-105.2442738, 1594.088,1615.416, 3.416,3.219
1721675932.747318,-6,154,1026,-1601,3937,-4620
1721675932.756568,-14,125,1029,-175,2642,-3150
1721675932.765818,1,-6,1036,1698,2362,5705
1721675932.775068,18,-31,1035,2958,2205,15758
1721675932.784318,41,-54,1028,2687,1426,28245
1721675932.793568,66,-61,1025,1540,192,31762
1721675932.802818,37,-91,1023,-481,-1348,24885
1721675932.812073,18,-57,1042,-2712,-3194,11453,23889,26586,78479,84572,36453, 155953.800, 40.0103691,-105.2442736, 1594.093,1615.421, 3.401,3.204
1721675932.821323,1,38,1045,-5118,-4410,1548
1721675932.830573,-33,54,1046,-6641,-5259,-4524
1721675932.839823,-54,81,1040,-7000,-5635,-10789
1721675932.849073,-98,91,1037,-6798,-5364,-13834
1721675932.858323,-103,87,1042,-6081,-4629,-14438
1721675932.867573,-110,102,1045,-5206,-3107,-13502
1721675932.876823,-128,89,1047,-4173,-1199,-10824
1721675932.886109,-98,93,1051,-2878,927,-9030,24371,26556,78393,,, 155953.900, 40.0103688,-105.2442736, 1594.102,1615.430, 3.388,3.189
1721675932.895359,-31,71,1041,-1723,3176,-7245
1721675932.904609,-4,21,1011,-612,4690,-8007
1721675932.913859,12,32,990,-113,5232,-9765
1721675932.923109,40,-57,977,-376,5267,-14070
1721675932.932359,-12,0,980,-778,4690,-19977
1721675932.941609,50,-99,955,-1916,3867,-13073
1721675932.950859,73,-126,940,-2572,3780,-11209
1721675932.960114,76,-3,963,-4506,2686,-7342,24291,26837,78302,84572,36446
1721675932.969364,111,27,1000,-6256,1076,2520
1721675932.978614,67,74,1053,-6361,-867,14638
1721675932.987864,-62,201,1092,-6273,-3010,20457
1721675932.997114,-185,346,1104,-5766,-4165,11725
1721675933.006364,-160,372,1086,-2957,-3124,-1742
1721675933.015614,-11,342,1055,1987,-639,-2923
1721675933.024864,53,215,1037,7272,1190,8190
1721675933.034119,-13,138,1046,11559,1120,14166,,,,84573,36448, 155954.000, 40.0103685,-105.2442733, 1594.104,1615.432, 3.375,3.174
1721675933.043369,-241,-32,1037,13782,201,11243
1721675933.052619,-317,-231,1021,14377,665,1863
1721675933.061869,-90,-400,979,11734,4165,-9652
1721675933.071119,316,7,981,6265,7638,-20615
1721675933.080369,153,48,955,972,6413,-27187
1721675933.089619,27,154,958,88,1172,-30337
1721675933.098869,-33,162,960,219,-1077,-20064
1721675933.108155,-66,100,978,2555,-1260,-700,24615,26214,78442,84572,36453, 155954.100, 40.0103681,-105.2442732, 1594.070,1615.398, 3.359,3.152
1721675933.117409,-77,42,1015,5067,-1015,16520
1721675933.126663,-81,-19,1047,6572,-333,24762
1721675933.135917,-50,-67,1049,7184,437,24823
1721675933.145171,-51,-88,1046,6572,1531,18007
1721675933.154425,-27,-79,1046,4988,2467,7008
1721675933.163679,0,-39,1041,3369,3167,-648
1721675933.172933,20,48,1028,1820,3447,-6703
1721675933.182190,21,104,1016,937,3386,-11682,24633,25933,78485,,, 155954.200, 40.0103680,-105.2442733, 1594.052,1615.380, 3.345,3.130
1721675933.191440,39,112,1009,1593,2948,-11288
1721675933.200690,13,104,1016,3098,2765,-2450
1721675933.209940,-9,36,1040,4472,2520,9940
1721675933.219190,-32,12,1062,5478,2572,18821
1721675933.228440,-55,2,1080,5600,2983,21472
