;Title, http://www.gcdataconcepts.com, LSM6DSM, BMP384, GPS
;Version, 2585, Build date, Feb  9 2024,  SN:CCDC20234ECBE41
;Start_time, 2024-07-22, 19:50:15.276
;Uptime, 5,sec,  Vbat, 4056, mv, EOL, 3500, mv
;Deadband, 0, counts
;DeadbandTimeout, 0.000,sec
;BMP384, SI, 0.100,sec, Units, Pa, mdegC
;Alt Trigger disabled
;LSM6DSM, SR,104,Hz, Units, mG, mdps, fullscale gyro 250dps, accel 4g
;Magnetometer, SR,10,Hz, Units, nT, Temperature, 35,degC
;CAM_M8 Gps, SR,10,Hz
;Gps Sats, TOW, 157833000, ver, 1, numSat, 21
;, gnssId, svId, cno, elev, azmith, prRes, flags,inUse
;, GPS, 008, 31, 12, 321, 0, 0x0000191c,*
;, GPS, 018, 40, 60, 113, 0, 0x0000191c,*
;, GPS, 010, 00, 47, 282, 0, 0x00001911
;, GPS, 013, 00, 03, 037, 0, 0x00001911
;, GPS, 015, 00, 30, 049, 0, 0x00001911
;, GPS, 016, 00, 01, 263, 0, 0x00001911
;, GPS, 023, 00, 70, 348, 0, 0x00001911
;, GPS, 024, 00, 27, 103, 0, 0x00001911
;Time, Ax, Ay, Az, Gx, Gy, Gz, Mx, My, Mz, P, T, TOW, Lat,Lon, Height(m), MSL(m), hdop(m), vdop(m)
1721677815.329741,798,-13,577,-5241,11795,-3955,39892,-19641,56091,84534,37934, 157833.254, 40.0102627,-105.2441087, 1592.643,-473873.146, 1125636.372,-1828710.323
1721677815.339037,868,-69,616,622,11086,22128
1721677815.348333,852,-96,651,-6396,11786,29968
1721677815.357629,702,-126,473,-13422,9476,32908
1721677815.366925,390,33,229,-18095,8557,31193
1721677815.376221,394,103,368,-22942,13623,29951
1721677815.385517,668,147,415,-27422,29522,29758
1721677815.394813,894,166,594,-25445,47390,24360
1721677815.785614,984,125,488,-17377,56560,18235,,,,84529,37941
1721677815.794910,1037,-92,514,-8470,53716,18987
1721677815.804206,1060,96,659,-5215,44485,19337
1721677815.813502,992,-30,623,-6895,32935,18173
1721677815.822798,937,5,662,-7848,22242,17561
1721677815.832094,798,15,629,-7402,13816,20475
1721677815.841390,865,48,651,-6755,11523,20728
1721677815.850686,704,8,747,-4165,14306,18348
1721677815.860016,930,-155,688,-78,15828,10718,42199,-17962,53778,84530,37943
1721677815.869312,980,38,547,1042,18821,5600
1721677815.878608,886,24,532,-577,15828,5285
1721677815.887904,887,55,540,-1067,6912,10605
1721677815.897200,834,118,506,-4103,1627,7455
1721677815.906496,796,115,480,-4523,-1829,2047
1721677815.915792,808,95,501,-2397,-3719,192
1721677815.925088,746,86,528,-262,-3185,-4034
1721677815.934388,671,16,468,3317,-1479,-8190,42742,-17706,52941,84532,37943
1721677815.943684,732,-41,516,6755,3368,-14202
1721677815.952980,730,-108,477,8847,10045,-18008
1721677815.962276,750,-94,426,8339,15146,-19049
1721677815.971572,807,-26,465,2967,18943,-16564
1721677815.980868,908,28,638,-4287,21971,-12084
1721677815.990164,868,51,413,-6912,23905,-7980
1721677815.999460,858,213,430,-4427,21498,-8217
1721677816.008759,979,139,482,-2555,17605,-9004,43518,-17816,51293
1721677816.018055,948,107,492,412,14402,455
1721677816.027351,938,104,513,350,11270,5031
1721677816.036647,842,142,560,648,8268,4900
1721677816.045943,868,47,563,2004,5862,735
1721677816.055239,896,55,367,3772,6518,-5434
1721677816.064535,789,170,384,3789,10080,-6379
1721677816.073831,990,44,484,2704,13571,-3177
1721677816.083130,1130,-34,639,-131,15032,2948,44183,-17517,50402,84536,37936, 157839.000, 40.0102627,-105.2441087, 1592.643,1613.971, 5672.520,4011.077
1721677816.092426,1105,-70,716,-4401,12363,6212
1721677816.101722,903,-44,446,-8566,5075,7017
1721677816.111018,788,12,464,-11016,-2660,3850
1721677816.120314,900,46,464,-12013,-2363,-1147
1721677816.129610,880,121,463,-11611,2380,-6405
1721677816.138906,896,159,466,-7980,4130,-10859
1721677816.148202,910,66,428,-1846,3220,-12347
1721677816.157532,873,82,381,4848,1715,-14525,43780,-19024,49920,84529,37941
1721677816.166828,904,92,478,7902,-753,-19749
1721677816.176124,967,104,469,9258,-3395,-21412
1721677816.185420,972,72,483,11227,-4568,-21735
1721677816.194716,952,10,488,13887,-6650,-22173
1721677816.204012,916,-21,482,15330,-10973,-22759
1721677816.213308,853,-40,522,14543,-14175,-20082
1721677816.222604,852,-73,470,10037,-14123,-14499
1721677816.231903,849,-58,478,4139,-9949,-7998,,,,,, 157839.200, 40.0102627,-105.2441087, 1592.643,1613.971, 5672.544,4011.094
1721677816.241199,781,-30,491,-2073,-2897,-2345
1721677816.250495,899,11,571,-9467,2091,4926
1721677816.259791,1022,56,501,-18138,5145,11270
1721677816.269087,997,72,483,-22750,7315,16345
1721677816.278383,976,99,532,-25558,5075,19503
1721677816.287679,894,21,506,-25655,787,17456
1721677816.296975,828,53,498,-21761,-2678,9651
1721677816.306275,969,167,479,-14315,-4384,-1523,44342,-17858,49847,84532,37947, 157839.200, 40.0102627,-105.2441087, 1592.643,1613.971, 5672.544,4011.094
1721677816.315571,981,275,391,-6667,-5058,-9844
1721677816.324867,845,-168,619,455,-8313,-5110
1721677816.334163,884,-152,604,-918,-8085,11961
1721677816.343459,891,13,495,-9791,-4883,10132
1721677816.352755,957,75,544,-12652,-6449,3535
1721677816.362051,1234,-6,624,-12958,-6843,3010
1721677816.371347,987,65,539,-14700,-8987,5670
1721677816.380768,986,-27,463,-19512,-19355,11550,44549,-16601,50323,84527,37952, 157839.300, 40.0102627,-105.2441087, 1592.643,1613.971, 5672.558,4011.104
1721677816.390064,628,228,524,-23686,-23634,12390
1721677816.399360,676,157,365,-25226,-20519,9870
1721677816.408656,762,110,448,-21043,-10107,10482
1721677816.417952,816,48,448,-17088,3228,10438
1721677816.427248,837,41,380,-16703,10386,11156
1721677816.436544,854,21,460,-19267,11270,12468
1721677816.445840,889,84,437,-21000,11138,11305
1721677816.455139,1194,220,588,-20011,9380,8723,44958,-16241,50067,84533,37950
1721677816.464435,894,297,380,-18733,7105,402
1721677816.473731,873,86,371,-8102,-10290,-3640
1721677816.483027,809,83,471,3894,-15619,-9984
1721677816.492323,1019,238,498,11690,-12557,-16538
1721677816.501619,1160,-45,386,13003,-9835,-14420
1721677816.510915,929,-2,673,13747,-15549,1067
1721677816.520211,917,36,389,6615,-21858,3272
1721677816.529511,798,45,503,-271,-24177,4453,44738,-16278,50439,,, 157839.400, 40.0102627,-105.2441087, 1592.643,1613.971, 5672.574,4011.115
1721677816.538807,816,-13,427,-1583,-23240,5232
1721677816.548103,810,-5,436,-2730,-16730,2205
1721677816.557399,758,28,440,-4322,-12198,-1855
1721677816.566695,815,59,488,-5993,-10772,-4953
1721677816.575991,842,78,535,-5407,-6764,-9485
1721677816.585287,790,-63,459,-1968,-2958,-13913
1721677816.594583,819,21,444,-280,-2407,-14412
1721677816.603882,855,78,489,-4235,-2765,-12933,,,,84531,37950, 157839.500, 40.0108410,-105.2439184, 1664.766,1686.094, 257.727,359.066
1721677816.613178,804,158,515,-7787,-4043,-8278
1721677816.622474,887,219,545,-8286,-5373,-5250
1721677816.631770,619,177,687,-4383,-5320,-4682
1721677816.641066,998,170,522,2949,-5740,-2835
1721677816.650362,378,-93,547,8934,-4935,16100
1721677816.659658,851,-21,638,10824,-3509,17132
1721677816.668954,1182,234,334,6484,717,60558
1721677816.678284,1094,278,373,-822,1863,71347,45428,-14581,50250,84531,37952, 157839.600, 40.0105644,-105.2440218, 1622.625,1643.953, 114.029,120.785
1721677816.687580,792,7,505,-1023,10578,45150
1721677816.696876,883,20,501,-3036,25033,18243
1721677816.706172,970,-18,455,-12652,32523,16213
1721677816.715468,964,111,385,-22260,30957,16668
1721677816.724764,877,176,279,-31535,25252,23196
1721677816.734060,949,236,363,-40547,19153,34562
1721677816.743356,1040,170,463,-45115,15531,44362
1721677816.752655,1169,538,593,-41160,11611,42428,46661,-11901,49298,84533,37952
1721677816.761951,1163,392,547,-32252,-849,19293
1721677816.771247,1286,203,592,-9196,-14438,3141
1721677816.780543,1430,178,564,10597,-35578,-16109
1721677816.789839,1159,90,662,26137,-54994,-25970
1721677816.799135,783,204,546,40749,-65319,-25577
1721677816.808431,618,-75,448,50077,-65004,-30197
1721677816.817727,609,-65,351,50287,-50584,-41493
1721677816.827027,673,-14,341,41729,-29759,-44022,45367,-14312,50360,,, 157839.700, 40.0105193,-105.2440504, 1624.233,1645.561, 125.004,139.868
1721677816.836323,798,25,267,27493,-9442,-43103
1721677816.845619,853,235,212,9625,2467,-35053
1721677816.854915,933,280,464,-7586,6256,-20414
1721677816.864211,969,289,554,-16563,7192,-4822
1721677816.873507,974,252,447,-17876,9038,4235
1721677816.882803,1000,69,454,-14796,11576,5661
1721677816.892099,956,132,411,-12206,11550,7000
1721677816.901429,905,120,355,-15120,7516,6641,45861,-13409,49987,84525,37950, 157839.800, 40.0105140,-105.2440525, 1624.232,1645.560, 125.007,139.868
1721677816.910725,782,156,419,-16800,1977,6798
1721677816.920021,865,109,390,-16528,-648,9073
1721677816.929317,1025,71,560,-13387,2038,9458
1721677816.938613,1197,122,487,-9502,5188,7201
1721677816.947909,1480,86,535,-7463,2091,-429
1721677816.957205,1047,305,624,-5845,-6545,-1759
1721677816.966501,711,212,368,-9450,-26320,6842
1721677816.975800,671,348,252,-10062,-47347,7463,,,,84531,37952
1721677816.985096,641,352,378,-4935,-40915,6807
1721677816.994392,901,302,408,3938,-23284,-2398
1721677817.003688,988,152,363,15129,-11760,-10360
1721677817.012984,945,103,367,23258,-10745,-17955
1721677817.022280,925,78,358,23337,-16590,-21324
1721677817.031576,885,145,357,17719,-22383,-19977
1721677817.040872,825,160,308,10982,-25472,-16013
1721677817.050171,782,170,321,6362,-25270,-9853,44970,-13720,51434,84534,37956, 157839.900, 40.0104189,-105.2440854, 1615.589,1636.917, 104.960,111.937
1721677817.059467,709,79,306,4594,-22199,-2634
1721677817.068763,692,30,351,4078,-17194,2931
1721677817.078059,755,-33,356,2538,-9879,6623
1721677817.087355,1189,178,533,622,-1917,7271
1721677817.096651,967,-33,465,-787,2240,4672
1721677817.105947,875,128,498,832,-11997,1137
1721677817.115243,853,71,483,3492,-27309,-5775
1721677817.124573,759,91,518,8409,-31807,-15190,44476,-13891,52191,,, 157840.000, 40.0103802,-105.2441020, 1613.199,1634.527, 94.214,97.687
1721677817.133873,712,-16,538,13169,-32507,-14989
1721677817.143173,659,7,499,13712,-27379,-12924
1721677817.152473,753,6,456,8304,-17535,-7280
1721677817.161773,682,55,545,1007,-5110,385
1721677817.171073,836,461,547,-6553,6422,1128
1721677817.180373,601,523,234,-9292,15268,-7123
1721677817.189673,797,262,475,3597,21621,-23275
1721677817.199005,922,108,400,22365,27195,-30520,44689,-15600,50817,84528,37956, 157840.100, 40.0103707,-105.2441108, 1612.445,1633.773, 86.821,88.229
1721677817.208301,1048,-61,517,32227,25550,-34440
1721677817.217597,984,-40,658,33522,15706,-38562
1721677817.226893,1419,54,396,30310,2056,-30240
1721677817.236189,1225,82,662,23538,-14420,-16949
1721677817.245485,1052,204,611,17299,-29952,-19329
1721677817.254781,968,160,490,14167,-36593,-8575
1721677817.264077,872,188,435,16170,-37870,-5207
1721677817.273316,809,194,405,20117,-36112,-7604,43597,-17968,50976,84535,37959
1721677817.282612,690,293,394,25375,-32139,-15383
1721677817.291908,623,281,386,33373,-26784,-23897
1721677817.301204,680,100,447,44135,-18192,-23398
1721677817.310500,776,73,522,51389,-6073,-23170
1721677817.319796,790,1,459,52465,5818,-26705
1721677817.329092,850,-54,562,52317,12302,-27755
1721677817.338388,824,-58,588,50287,15233,-28814
1721677817.347687,1104,-131,455,47075,14752,-26732,42333,-20312,51257,84526,37956, 157840.200, 40.0103477,-105.2441307, 1611.170,1632.498, 81.091,81.332
1721677817.356987,1090,-225,557,42254,11261,-29094
1721677817.366287,1065,-446,592,35998,-289,-28210
1721677817.375587,929,-531,611,26303,-16853,-24352
1721677817.384887,820,-430,499,10072,-32349,-27178
1721677817.394187,770,-234,497,-7997,-41852,-32629
1721677817.403487,722,105,428,-22496,-43654,-35070
1721677817.412787,782,218,502,-29566,-39384,-30704
1721677817.422089,1016,189,674,-27002,-29575,-17982,,,,,, 157840.300, 40.0103417,-105.2441395, 1611.708,1633.036, 70.707,72.180
1721677817.431385,1183,186,708,-22067,-19303,-8689
1721677817.440681,1456,208,813,-15977,-16835,-7009
1721677817.449977,1397,111,754,-6098,-25437,-2818
1721677817.459273,1087,224,757,3133,-44477,-10894
1721677817.468569,996,136,501,11550,-64322,-14727
1721677817.477865,747,-31,481,20327,-74988,-17439
1721677817.487161,628,-275,346,25008,-75635,-27248
1721677817.496460,554,-164,490,24824,-66737,-32165,39935,-21807,53875,84529,37963, 157840.400, 40.0103309,-105.2441439, 1612.331,1633.659, 63.483,64.990
1721677817.505756,581,-237,563,18192,-51879,-38868
1721677817.515052,645,-237,469,9827,-35648,-41239
1721677817.524348,702,-155,434,-78,-20685,-39288
1721677817.533644,808,-167,355,-10526,-8952,-33907
1721677817.542940,764,-7,353,-19267,-3632,-21289
1721677817.552236,792,35,503,-28070,-1444,2791
1721677817.561532,926,-8,439,-34860,-2503,14962
1721677817.570832,905,65,539,-40818,-6222,19512,39239,-21423,55169,84529,37963
1721677817.580128,898,60,670,-41256,-12250,20361
1721677817.589424,1000,115,711,-33206,-18559,8715
1721677817.598720,630,-349,757,-17876,-23879,-11104
1721677817.608016,539,993,921,814,-31605,-39559
1721677817.617312,913,629,523,16888,-31273,-44573
1721677817.626608,961,134,738,48755,-22514,-35464
1721677817.635904,883,-369,789,74253,-17667,-28902
1721677817.645295,864,-543,862,80142,-16223,-33478,37298,-24932,54937,84528,37967, 157840.500, 40.0103226,-105.2441565, 1612.114,1633.442, 58.140,59.566
1721677817.654591,776,-545,860,69405,-22024,-35307
1721677817.663887,707,-396,755,51695,-30284,-29855
1721677817.673183,724,-238,761,28622,-32235,-16687
1721677817.682479,915,-128,861,7097,-26417,-315
1721677817.691775,1121,-58,889,-8443,-17850,11497
1721677817.701071,1093,29,848,-15706,-16275,12337
1721677817.710367,908,21,730,-15330,-25305,5547
1721677817.719666,567,40,578,-9607,-38684,-298,36614,-23919,56542,,, 157840.600, 40.0103037,-105.2441663, 1611.081,1632.409, 53.938,55.470
1721677817.728962,476,-53,459,-2992,-45842,-963
1721677817.738258,586,-219,361,438,-38815,1330
1721677817.747554,598,-363,586,-2677,-22847,-1470
1721677817.756850,607,-372,627,-11401,-10369,4550
1721677817.766146,658,-167,606,-24500,-3238,9957
1721677817.775442,724,-30,633,-35043,2922,12477
1721677817.784738,785,27,590,-37887,8890,15513
1721677817.794037,786,23,572,-34571,14183,17071,,,,84529,37972, 157840.700, 40.0102938,-105.2441785, 1611.235,1632.563, 50.424,51.922
1721677817.803333,715,-17,627,-27658,16913,13370
1721677817.812629,751,-109,594,-19416,16231,8251
1721677817.821925,764,-121,597,-11873,14175,2073
1721677817.831221,817,0,692,-7472,12687,-7447
1721677817.840517,983,63,705,-5241,11068,-9249
1721677817.849813,1202,101,806,-3386,7813,-4034
1721677817.859109,1268,7,871,-743,-665,2073
1721677817.868409,1145,-47,831,3457,-17194,5932,36889,-23449,56671,84536,37967
1721677817.877705,969,-102,760,7175,-38028,4103
1721677817.887001,829,-112,733,10395,-55440,-2590
1721677817.896297,625,-103,703,13003,-65127,-10544
1721677817.905593,523,41,776,15400,-67218,-16030
1721677817.914889,524,-175,663,16433,-60253,-19075
1721677817.924185,468,-126,823,17325,-47723,-16380
1721677817.933481,522,-243,820,15348,-32979,-8085
1721677817.942810,583,-229,849,10238,-17308,-1654,34924,-24627,58087,84530,37965, 157840.800, 40.0103290,-105.2441494, 1611.723,1633.051, 45.773,48.767
1721677817.952106,561,-196,760,3203,-2232,752
1721677817.961402,605,-218,666,-2170,7577,2931
1721677817.970698,770,-96,797,-8942,16572,3482
1721677817.979994,827,-106,625,-12407,17368,3062
1721677817.989290,693,31,606,-12810,9283,3508
1721677817.998586,630,-198,569,-12206,-429,6116
1721677818.007882,559,-224,580,-10815,-6292,8697
1721677818.017182,511,-241,501,-13273,-7193,2476,34857,-23925,58648,,, 157840.900, 40.0103383,-105.2441411, 1611.131,1632.459, 41.825,45.678
1721677818.026478,499,-194,484,-15618,-4909,-4192
1721677818.035774,571,-152,563,-18200,-1619,-7552
1721677818.045070,802,-78,654,-21428,2152,-7342
1721677818.054366,905,-96,705,-23327,6107,-5110
1721677818.063662,855,8,705,-22732,4865,-2398
1721677818.072958,991,-42,767,-20973,-1540,962
1721677818.082254,875,-32,831,-16537,-7604,1890
1721677818.091553,719,67,590,-10097,-15593,-4297,33917,-24102,59478,84530,37967, 157841.000, 40.0103398,-105.2441311, 1610.014,1631.342, 38.344,42.981
1721677818.100849,629,-157,610,-1146,-20782,-8199
1721677818.110145,801,-10,764,6064,-16993,-11550
1721677818.119441,970,-78,755,5075,-8392,-13353
1721677818.128737,1040,-102,819,4577,-5653,-8680
1721677818.138033,844,-162,551,2302,-11078,-1488
1721677818.147329,719,-61,833,-1566,-20983,-613
1721677818.156625,750,-175,714,-5381,-24745,-674
1721677818.165955,601,-185,684,-7315,-23065,-2013,,,,84534,37967
1721677818.175251,620,-228,738,-7568,-19058,-7009
1721677818.184547,766,-314,772,-9117,-11708,-11332
1721677818.193843,747,-192,765,-13265,-5959,-14569
1721677818.203139,816,-43,707,-19101,-6248,-18332
1721677818.212435,663,55,666,-21490,-9424,-19452
1721677818.221731,572,53,513,-18742,-11358,-20922
1721677818.231027,598,49,826,-13868,-6755,-16144
1721677818.240326,828,-146,732,-12346,4567,-11550,32690,-24041,60607,84531,37972, 157841.100, 40.0103297,-105.2441261, 1607.750,1629.078, 35.519,40.652
1721677818.249622,915,-96,794,-10990,12180,-6020
1721677818.258918,923,-60,821,-12538,9572,-5513
1721677818.268214,842,-29,752,-15575,-1252,-3465
1721677818.277510,638,30,568,-17736,-12364,1715
1721677818.286806,523,51,672,-18418,-17544,4558
1721677818.296102,829,51,834,-16353,-12469,3736
1721677818.305398,792,205,729,-11567,-3028,-263
1721677818.314698,899,45,738,-2021,-3133,-5872,32019,-24151,61224,,, 157841.200, 40.0103235,-105.2441190, 1606.577,1627.905, 32.719,38.656
1721677818.323994,963,42,730,11638,-8199,-10194
1721677818.333290,839,-92,741,20843,-17212,-15024
1721677818.342586,795,-217,747,25813,-27423,-17098
1721677818.351882,784,-233,766,24719,-33425,-14254
1721677818.361178,708,-210,778,17780,-37407,-9984
1721677818.370474,660,-199,795,9284,-39909,-840
1721677818.379770,660,-165,793,0,-39323,10281
1721677818.389099,680,-158,755,-6921,-37748,17298,30212,-24145,62872,84522,37970, 157841.300, 40.0103152,-105.2441151, 1605.772,1627.100, 30.367,36.761
1721677818.398395,640,-167,780,-11453,-34974,19503
1721677818.407691,587,-157,800,-15225,-32148,18970
1721677818.416987,630,-127,792,-17850,-28508,15820
1721677818.426283,643,-68,727,-17858,-23905,9913
1721677818.435579,396,-31,792,-15172,-19320,1723
1721677818.444875,581,9,1029,-11733,-14097,-2223
1721677818.454171,787,-193,894,-10176,-3098,-385
1721677818.463471,696,-285,640,-9712,3797,1907,30041,-23315,63671,84524,37976
1721677818.472767,560,-173,681,-12468,3928,-175
1721677818.482063,555,-63,687,-17255,1767,455
1721677818.491359,504,-89,598,-20728,-210,6265
1721677818.500655,518,-93,719,-22846,157,10561
1721677818.509951,523,-72,712,-25532,6186,9520
1721677818.519247,627,-37,656,-25856,14577,6615
1721677818.528543,729,-14,588,-21516,20562,2336
1721677818.537842,742,-23,586,-14910,21673,-5084,29180,-23590,64208,84526,37976, 157841.400, 40.0103158,-105.2441075, 1605.825,1627.153, 28.313,34.790
1721677818.547138,775,-40,598,-8330,17106,-11795
1721677818.556434,791,-33,626,-4891,9712,-16897
1721677818.565730,779,-15,672,-4716,1408,-20222
1721677818.575026,877,12,642,-4655,-7044,-17842
1721677818.584322,798,12,612,-3211,-16293,-14202
1721677818.593618,592,161,633,193,-29260,-11305
1721677818.602914,817,-123,789,4795,-40819,-499
1721677818.612549,866,-153,752,7027,-47233,17255,,,,,, 157841.500, 40.0103085,-105.2441088, 1605.622,1626.950, 26.319,32.816
1721677818.621845,670,-210,690,-1023,-57147,26083
1721677818.631141,553,-169,656,-9222,-67629,32506
1721677818.640437,568,51,813,-14262,-77035,37660
1721677818.649733,660,-78,1040,-18742,-81673,36758
1721677818.659029,598,2,1006,-17972,-83904,32760
1721677818.668325,537,126,1007,-14262,-83738,23791
1721677818.677621,620,-1,905,-6545,-78584,15540
1721677818.686615,667,-220,919,2162,-74148,7043,25103,-22296,67938,84527,37972
1721677818.695911,653,-361,959,6904,-73395,9756
1721677818.705207,478,-143,827,4795,-74550,4926
1721677818.714503,392,-82,732,-1190,-78217,7577
1721677818.723799,405,-38,805,-6177,-79520,8592
1721677818.733095,25,87,780,-14586,-75907,8382
1721677818.742391,340,-82,915,-24115,-67542,11943
1721677818.751687,279,26,890,-27352,-47005,16126
1721677818.760987,266,187,863,-25760,-27038,14008,22460,-21173,70043,84534,37985, 157841.600, 40.0102953,-105.2441162, 1605.354,1626.682, 24.682,30.426
1721677818.770283,414,-19,870,-19013,-6397,7551
1721677818.779579,372,-113,952,-10150,10596,3150
1721677818.788875,416,-57,882,-8303,21402,-1812
1721677818.798171,341,-89,783,-11733,30327,-5110
1721677818.807467,292,-70,757,-15636,38946,-4769
1721677818.816763,319,-14,739,-19521,50312,-3780
1721677818.826059,486,22,706,-22443,63673,-3877
1721677818.835358,412,-43,788,-23861,75416,-2100,26568,-19580,68572,84530,37979, 157841.700, 40.0102854,-105.2441133, 1604.237,1625.565, 22.134,27.683
1721677818.844654,572,187,822,-25873,81978,-1129
1721677818.853950,698,149,850,-28603,85627,-385
1721677818.863246,756,181,937,-26250,84218,3115
1721677818.872542,758,69,960,-21831,77148,11480
1721677818.881838,724,141,953,-17745,67698,17123
1721677818.891134,726,10,932,-15496,57566,20545
1721677818.900430,655,53,962,-12258,47696,21411
1721677818.909790,662,112,990,-9800,38333,18462,27752,-19799,67608,,, 157841.800, 40.0102773,-105.2441094, 1603.957,1625.285, 20.000,25.481
1721677818.919086,704,115,1068,-5355,30896,14227
1721677818.928382,691,141,1068,1873,24193,9931
1721677818.937678,673,75,1028,10509,16992,4427
1721677818.946974,618,-43,972,19705,9966,-1435
1721677818.956270,560,-48,869,26609,3780,-6607
1721677818.965566,550,-106,711,29007,-622,-9800
1721677818.974862,504,-102,696,27633,-2669,-10544
1721677818.984162,631,-55,689,21315,-2310,-10028,,,,84530,37985, 157841.900, 40.0102672,-105.2441028, 1603.686,1625.014, 17.753,23.335
1721677818.993458,579,80,792,12198,-97,-2205
1721677819.002754,683,43,869,4183,262,4480
1721677819.012050,756,151,900,-1365,-1995,1356
1721677819.021346,691,84,925,-4305,-7105,3062
1721677819.030642,625,-3,909,-4296,-13703,7805
1721677819.039938,537,80,905,-4611,-18419,12442
1721677819.049234,605,-340,899,-6308,-19224,14463
1721677819.058533,517,-53,971,-6177,-15908,14385,27117,-19561,68157,84529,37983
1721677819.067829,422,-32,917,-9931,-13082,17001
1721677819.077125,198,-140,1019,-8338,-8365,29688
1721677819.086421,535,23,695,-8846,4856,4786
1721677819.095717,552,132,596,-8522,18987,-20922
1721677819.105013,546,81,766,-752,23948,-18988
1721677819.114309,584,9,832,7167,25943,-11515
1721677819.123605,613,-13,821,11498,27317,-9197
1721677819.132935,584,-36,833,12110,27378,-4559,27935,-19525,67681,,, 157842.000, 40.0102610,-105.2440968, 1602.932,1624.260, 15.863,21.381
1721677819.142231,595,-45,820,8820,25795,673
1721677819.151527,637,33,796,3159,22522,2100
1721677819.160823,621,133,828,-1636,17281,4200
1721677819.170119,635,180,842,-1715,12258,7988
1721677819.179415,624,154,855,3798,9135,9922
1721677819.188711,615,199,868,12539,7665,8837
1721677819.198007,641,266,885,21429,7446,7603
1721677819.207306,676,513,894,30512,7612,7105,28363,-21185,66430,84534,37990, 157842.100, 40.0102477,-105.2440961, 1601.861,1623.189, 14.201,19.711
1721677819.216602,765,390,1038,40977,6361,8653
1721677819.225898,719,257,1030,54863,3578,14411
1721677819.235194,600,66,959,67577,-989,17640
1721677819.244490,535,-172,901,75924,-4297,20090
1721677819.253786,586,-268,866,76572,-2765,21026
1721677819.263082,544,-276,869,68084,1688,17570
1721677819.272378,633,-235,849,54627,4663,13562
1721677819.281678,528,-244,884,40679,4821,15671,29040,-21722,65582,84533,37983
1721677819.290974,529,-223,876,27108,2572,17001
1721677819.300270,511,-198,868,13729,2423,17561
1721677819.309566,543,-145,877,1987,3727,16126
1721677819.318862,639,-121,880,-6833,6098,16275
1721677819.328158,646,-48,930,-12145,8312,16353
1721677819.337454,637,-56,937,-14682,8190,14901
1721677819.346750,619,-65,920,-14936,5486,12390
1721677819.356049,602,-49,883,-14367,2161,9808,,,,84535,37983, 157842.200, 40.0102409,-105.2440996, 1601.237,1622.565, 12.852,18.317
1721677819.365345,571,-32,816,-13772,831,7262
1721677819.374641,504,-12,794,-13413,2336,7726
1721677819.383937,563,8,776,-13746,5836,9301
1721677819.393233,783,46,846,-14271,11095,10771
1721677819.402529,738,129,910,-13037,14953,10631
1721677819.411825,659,86,934,-8233,12573,10771
1721677819.421121,734,-83,880,-1671,5923,8601
1721677819.430451,561,-158,820,3640,-902,6562,29467,-20764,65832,,, 157842.300, 40.0102320,-105.2441012, 1600.207,1621.535, 11.596,16.762
1721677819.439747,526,-212,810,4953,-5075,3561
1721677819.449043,486,-200,820,2818,-2897,-140
1721677819.458339,515,-180,842,-1732,3981,-2249
1721677819.467635,547,-173,848,-7612,12888,-1217
1721677819.476931,646,-90,796,-14647,22067,2493
1721677819.486227,747,-18,863,-22601,30450,8312
1721677819.495523,720,-228,985,-30240,36225,13308
1721677819.504822,953,211,1012,-35463,37362,16388,30804,-19519,65429,84525,37994, 157842.400, 40.0102269,-105.2441003, 1599.173,1620.501, 10.542,15.435
1721677819.514118,692,118,1001,-35201,34518,13282
1721677819.523414,652,53,832,-28350,32138,12118
1721677819.532710,611,56,681,-20868,36636,7665
1721677819.542006,562,57,599,-14910,45841,4585
1721677819.551302,578,53,576,-10290,56367,3360
1721677819.560598,572,19,598,-7376,66220,3745
1721677819.569894,451,-98,617,-6807,74165,3333
1721677819.579254,566,90,603,-8662,80955,1557,35363,-18688,61883,84530,37990
1721677819.588554,650,9,618,-13177,90842,-1330
1721677819.597854,615,96,714,-14437,99163,-18
1721677819.607154,517,306,685,-16170,104483,-1068
1721677819.616454,561,291,582,-16318,109095,-3247
1721677819.625754,630,48,632,-10115,115263,-5985
1721677819.635054,797,-186,745,-2082,121528,-6834
1721677819.644354,939,-185,684,-148,126017,-9835
1721677819.653656,886,-83,524,-3850,123821,-10877,40081,-18634,56250,84535,37992, 157842.500, 40.0102266,-105.2440993, 1598.699,1620.027, 9.680,14.310
1721677819.662956,796,39,468,-6580,112525,-4699
1721677819.672256,780,56,445,-5153,98612,341
1721677819.681556,803,81,478,-2143,83063,1540
1721677819.690856,957,184,563,-1951,67296,-1147
1721677819.700156,1002,225,582,-3955,50863,-6020
1721677819.709456,984,197,564,-3578,30905,-3973
1721677819.718756,853,171,554,-910,12057,2747
1721677819.728028,740,119,535,2520,-2363,7087,40161,-19183,55877,,, 157842.600, 40.0102240,-105.2440967, 1598.067,1619.395, 8.956,13.319
1721677819.737324,737,60,504,5863,-10072,7437
1721677819.746620,692,49,537,8339,-12618,5197
1721677819.755916,688,80,548,9669,-12662,1365
1721677819.765212,711,62,584,10238,-10194,-2678
1721677819.774508,744,24,646,10667,-5355,-8663
1721677819.783804,797,37,729,10413,1706,-12968
1721677819.793100,973,79,758,8435,10220,-16459
1721677819.802399,1000,24,763,5303,18156,-16109,,,,84533,38001, 157842.700, 40.0102213,-105.2440962, 1597.846,1619.174, 8.383,12.464
1721677819.811699,925,42,687,1899,21008,-11270
1721677819.820999,861,38,554,-3990,19416,-2835
1721677819.830299,787,36,447,-11086,17062,7157
1721677819.839599,742,58,373,-17911,15067,16870
1721677819.848899,760,127,367,-23773,14691,23546
1721677819.858199,807,214,401,-26775,15995,27475
1721677819.867499,914,187,482,-24745,17202,29601
1721677819.876801,993,168,614,-18331,16948,29898,41680,-17419,54864,84529,38005
1721677819.886097,1108,131,591,-10237,13851,26923
1721677819.895393,1025,187,625,-1487,7717,18838
1721677819.904689,1016,189,628,8225,-1313,10123
1721677819.913985,935,162,650,18787,-9713,5941
1721677819.923281,855,117,663,27230,-15672,2275
1721677819.932577,772,21,664,32743,-17492,17
1721677819.941873,745,-23,666,35237,-14438,-1969
1721677819.951172,779,46,636,34125,-7569,-4489,41748,-18408,53912,84527,38003, 157842.800, 40.0102186,-105.2440934, 1597.520,1618.848, 7.872,11.709
1721677819.960468,799,100,619,31255,376,-7499
1721677819.969764,887,75,643,29077,6755,-7140
1721677819.979060,897,73,698,26172,11007,-3220
1721677819.988356,960,76,672,20650,12153,1592
1721677819.997652,968,115,679,13790,10176,8277
1721677820.006948,964,111,660,7062,5110,15111
1721677820.016244,951,72,620,1724,-1829,21166
1721677820.025544,880,127,641,-2607,-9459,24211,42114,-17004,54370,,, 157842.900, 40.0102190,-105.2440933, 1597.723,1619.051, 7.413,11.135
1721677820.034840,860,152,628,-6151,-17369,25760
1721677820.044136,808,181,623,-7166,-24142,27475
1721677820.053432,779,192,610,-5818,-28473,27772
1721677820.062728,750,196,620,-2563,-29777,27422
1721677820.072024,745,198,642,2205,-28823,27641
1721677820.081320,744,186,637,7823,-26557,27685
1721677820.090616,741,156,625,13983,-23713,27037
1721677820.099915,735,124,628,20388,-20948,26083,42272,-16711,54339,84530,38010, 157843.000, 40.0102186,-105.2440942, 1597.635,1618.963, 7.000,10.628
1721677820.109211,742,86,630,26417,-18393,25436
1721677820.118507,732,45,624,31045,-16162,24202
1721677820.127803,730,2,616,33942,-14377,22242
1721677820.137099,730,-20,625,35377,-12810,19328
1721677820.146395,734,-31,635,35893,-11139,15671
1721677820.155691,756,-44,645,35805,-9424,12626
1721677820.164987,785,-24,638,34747,-7482,10981
1721677820.174317,798,0,637,32603,-5592,10395,,,,84529,38003
1721677820.183613,791,11,636,30573,-4463,11357
1721677820.192909,812,-5,640,29077,-4410,13256
1721677820.202205,850,-12,652,27528,-3448,14463
1721677820.211501,872,-4,680,26084,-2319,15802
1721677820.220797,890,12,696,24579,-2144,17062
1721677820.230093,904,-17,720,23424,-2713,17893
1721677820.239389,922,-20,658,22777,-4069,17955
1721677820.248688,897,2,654,21674,-6642,18077,42742,-16442,53662,84533,38012, 157843.100, 40.0102204,-105.2440944, 1597.514,1618.842, 6.698,10.191
1721677820.257984,887,38,663,20650,-10299,18637
1721677820.267280,896,60,663,19968,-13895,20055
1721677820.276576,891,94,674,19959,-16862,21490
1721677820.285872,876,118,654,20974,-19049,23310
1721677820.295168,867,117,625,23118,-20773,26127
1721677820.304464,853,115,617,25970,-22453,29338
1721677820.313760,844,110,614,29120,-24177,31806
1721677820.323059,834,103,614,32480,-25874,32838,42803,-15679,54113,,, 157843.200, 40.0102197,-105.2440960, 1597.042,1618.370, 6.450,9.723
1721677820.332355,829,85,627,35954,-27405,32576
1721677820.341651,839,69,676,39367,-28517,31850
1721677820.350947,856,51,722,41948,-29138,32086
1721677820.360243,874,52,739,42429,-29190,33381
1721677820.369539,922,7,673,40303,-29033,35078
1721677820.378835,704,28,719,36672,-29453,37773
1721677820.388131,786,-2,583,32244,-30074,37712
1721677820.397461,728,-20,587,27869,-28893,41422,43084,-13641,54821,84527,38017, 157843.300, 40.0102202,-105.2440962, 1596.786,1618.114, 6.229,9.301
1721677820.406757,706,49,706,22549,-27633,43041
1721677820.416053,788,13,669,17317,-24605,45053
1721677820.425349,760,110,770,12452,-20834,47801
1721677820.434645,821,95,705,7840,-17422,49621
1721677820.443941,815,100,719,4699,-15278,53103
1721677820.453237,760,51,713,2792,-13965,55037
1721677820.462533,728,47,759,2153,-11970,54731
1721677820.471833,760,46,783,2293,-7604,50172,44055,-10723,54724,84524,38019
1721677820.481129,769,62,766,3054,-2004,44730
1721677820.490425,834,131,767,3772,3036,37362
1721677820.499721,854,177,724,4725,6308,31351
1721677820.509017,881,233,693,6405,5705,28726
1721677820.518313,883,266,737,8392,2257,29942
1721677820.527609,853,264,712,10763,-2442,35218
1721677820.536905,812,194,598,12942,-6572,43741
1721677820.546204,697,135,569,14018,-8943,51117,,,,84533,38014, 157843.400, 40.0102221,-105.2440958, 1596.666,1617.994, 6.105,9.167
1721677820.555500,658,119,571,13747,-8488,55457
1721677820.564796,659,92,579,13493,-5478,57190
1721677820.574092,694,71,653,14342,-744,55107
1721677820.583388,729,82,681,16293,4978,48763
1721677820.592684,747,85,702,18830,10692,40381
1721677820.601980,780,92,737,22015,15233,33048
1721677820.611276,825,85,773,24745,18795,27046
1721677820.620606,841,131,766,26067,21525,22172,45318,-8251,53692,,, 157843.500, 40.0102222,-105.2440944, 1596.346,1617.674, 6.002,9.068
1721677820.629902,766,190,799,25778,22408,19565
1721677820.639198,760,194,771,25428,21787,20186
1721677820.648494,794,156,739,25953,22811,22960
1721677820.657790,813,208,738,27055,24622,26766
1721677820.667086,815,119,752,27965,24316,32628
1721677820.676382,806,69,727,28963,21411,38010
1721677820.685678,786,8,718,27825,17097,37135
1721677820.694977,776,-80,560,25524,12092,31386,46636,-6866,51849,84527,38023, 157843.600, 40.0102204,-105.2440936, 1595.657,1616.985, 5.848,8.774
1721677820.704273,550,61,629,22400,6965,21831
1721677820.713569,701,315,282,18900,4182,10823
1721677820.722865,549,291,603,17133,4891,-167
1721677820.732161,830,481,507,19732,3430,-12040
1721677820.741457,772,401,578,26907,1723,-14700
1721677820.750753,684,208,719,38798,-2372,-22645
1721677820.760049,794,119,786,50514,-6983,-20502
1721677820.769348,869,0,828,55125,-8278,-16293,46459,-8215,51660,84532,38021
1721677820.778644,802,-19,767,50864,-10500,-14377
1721677820.787940,803,-46,690,39857,-15602,-8462
1721677820.797236,714,25,686,25498,-20300,2388
1721677820.806532,651,140,665,10588,-25183,13868
1721677820.815828,620,182,660,-1155,-28648,26923
1721677820.825124,639,153,721,-7542,-29969,39576
1721677820.834420,701,120,740,-9791,-28823,46392
1721677820.843750,746,105,736,-8706,-26863,44887,45507,-6420,53942,84523,38025, 157843.700, 40.0102196,-105.2440933, 1595.234,1616.562, 5.779,8.617
1721677820.853046,762,62,853,-4095,-27292,39243
1721677820.862342,788,49,970,2757,-31868,28463
1721677820.871638,743,73,976,10457,-38028,16283
1721677820.880934,605,95,884,18262,-43672,3045
1721677820.890230,502,-9,817,25787,-46638,-10387
1721677820.899526,604,4,753,32323,-43978,-21534
1721677820.908822,555,107,796,34755,-38168,-32122
1721677820.918122,675,146,716,34607,-35630,-41458,43151,-9375,56646,,, 157843.800, 40.0102202,-105.2440930, 1595.060,1616.388, 5.737,8.553
1721677820.927418,677,163,694,34782,-36208,-43199
1721677820.936714,699,74,683,33793,-41423,-44337
1721677820.946010,668,-156,717,31150,-48370,-43330
1721677820.955306,498,-282,746,24002,-54040,-43549
1721677820.964602,331,-243,660,8925,-57479,-44757
1721677820.973898,51,-80,592,-12661,-54285,-44022
1721677820.983194,343,-120,413,-34746,-40784,-39874
1721677820.992493,267,54,518,-53147,-16170,-34475,,,,84525,38025, 157843.900, 40.0102210,-105.2440929, 1594.991,1616.319, 5.714,8.510
1721677821.001789,424,153,539,-70857,4576,-31352
1721677821.011085,551,168,567,-84927,21052,-21552
1721677821.020381,653,220,604,-96118,31088,-12005
1721677821.029677,712,254,639,-104536,35122,-4734
1721677821.038973,766,246,679,-108885,35096,-919
1721677821.048269,788,261,701,-109243,32558,-893
1721677821.057565,743,283,703,-106452,28717,-3159
1721677821.066864,683,286,691,-101027,24412,-4673,44226,-5377,56353,84527,38034
1721677821.076160,672,265,692,-94578,21113,-4874
1721677821.085456,682,265,689,-88873,19197,-6327
1721677821.094752,822,353,584,-84498,17858,-9923
1721677821.104048,1072,491,436,-80202,15146,-12758
1721677821.113344,841,527,542,-73850,6518,-12802
1721677821.122640,840,499,533,-67576,-10247,-16170
1721677821.131936,789,356,504,-62413,-29602,-9897
1721677821.141266,688,277,592,-59648,-46673,-7315,43029,-2880,58538,84526,38030, 157844.000, 40.0102212,-105.2440929, 1594.914,1616.242, 5.667,8.459
1721677821.150562,462,309,639,-60515,-57908,-9529
1721677821.159858,600,586,573,-63288,-62020,-13449
1721677821.169154,647,372,751,-64478,-57470,-19128
1721677821.178450,649,328,775,-60392,-49263,-33749
1721677821.187746,566,373,806,-55938,-41213,-45159
1721677821.197042,523,422,848,-52132,-29715,-52614
1721677821.206338,520,425,821,-50653,-14989,-54364
1721677821.215638,600,364,829,-51590,-289,-52938,42675,-2764,58947,,, 157844.100, 40.0102212,-105.2440939, 1594.945,1616.273, 5.620,8.400
1721677821.224934,635,350,849,-54722,11628,-49140
1721677821.234230,650,391,877,-59963,18733,-45728
1721677821.243526,588,472,853,-64968,22181,-43418
1721677821.252822,486,454,782,-68573,23738,-41773
1721677821.262118,308,540,777,-71968,24596,-46664
1721677821.271414,358,474,731,-76002,23555,-59194
1721677821.280710,185,723,843,-78321,22032,-91587
1721677821.290009,346,531,839,-79283,18681,-118327,42590,-8013,57843,84523,38034, 157844.200, 40.0102194,-105.2440948, 1594.956,1616.284, 5.589,8.344
1721677821.299305,523,446,815,-80745,18418,-160405
1721677821.308601,597,338,845,-85085,20422,-180775
1721677821.317897,612,297,844,-89425,25865,-190243
1721677821.327193,650,298,722,-91393,36540,-187049
1721677821.336489,663,340,732,-89862,47547,-161210
1721677821.345785,555,361,728,-88523,48282,-135905
1721677821.355081,546,406,701,-89110,45027,-145802
1721677821.364411,606,363,703,-88296,44056,-156232,,,,84528,38039
1721677821.373707,672,303,698,-85347,42857,-162672
1721677821.383003,739,229,654,-82407,39147,-169768
1721677821.392299,767,168,636,-79817,33503,-171290
1721677821.401595,831,95,600,-77752,26950,-164605
1721677821.410891,858,74,556,-75950,20212,-147893
1721677821.420187,874,66,502,-74331,12617,-125545
1721677821.429483,864,65,467,-71312,4935,-99978
1721677821.438782,870,93,407,-65817,-1873,-76467,40826,-13024,58038,84532,38039, 157844.300, 40.0102181,-105.2440964, 1594.945,1616.273, 5.535,8.285
1721677821.448078,889,132,373,-57767,-7237,-57077
1721677821.457374,886,176,383,-46541,-11603,-37582
1721677821.466670,887,239,419,-31928,-15549,-15890
1721677821.475966,855,261,442,-14778,-19522,5976
1721677821.485262,820,303,432,3299,-23993,23940
1721677821.494558,774,400,448,20510,-28412,36575
1721677821.503854,671,478,434,36689,-33364,42665
1721677821.513214,602,494,467,51564,-37162,42385,39636,-13140,59503,,, 157844.400, 40.0102174,-105.2440965, 1595.017,1616.345, 5.503,8.238
1721677821.522514,598,484,480,63639,-38990,36111
1721677821.531814,603,409,444,70727,-39402,21446
1721677821.541114,665,311,438,72249,-38308,1557
1721677821.550414,747,205,396,68548,-36689,-12863
1721677821.559714,839,114,335,61329,-34825,-15742
1721677821.569014,875,116,377,52107,-33294,-6834
1721677821.578314,926,174,420,42193,-32297,8085
1721677821.587616,931,250,461,35114,-31413,26845,38372,-13836,60583,84533,38048, 157844.500, 40.0102169,-105.2440959, 1595.061,1616.389, 5.465,8.192
1721677821.596916,914,307,492,33469,-31413,42096
1721677821.606216,878,322,509,37310,-32997,52438
1721677821.615516,892,377,562,45465,-34650,61363
1721677821.624816,845,480,619,55808,-35805,67795
1721677821.634116,822,487,617,67139,-37477,71085
1721677821.643416,793,454,614,76930,-40697,69825
1721677821.652716,756,435,615,82434,-42998,75643
1721677821.661988,757,469,618,82355,-43085,79161,38806,-11938,60931,84525,38048
1721677821.671284,757,435,604,78007,-41659,79388
1721677821.680580,792,368,670,71952,-36855,84008
1721677821.689876,844,292,658,64995,-29820,89722
1721677821.699172,845,276,587,56910,-22777,93861
1721677821.708468,878,260,542,47784,-16004,99671
1721677821.717764,888,290,545,39498,-9835,111116
1721677821.727060,868,363,559,33653,-6099,124057
1721677821.736359,799,432,558,32515,-5767,134995,,,,84530,38052, 157844.600, 40.0102168,-105.2440953, 1595.039,1616.367, 5.430,8.149
1721677821.745659,701,495,562,36960,-6580,142922
1721677821.754959,485,754,644,45509,-6843,143062
1721677821.764259,322,935,747,56079,-5662,135738
1721677821.773559,104,750,743,61075,-9188,136333
1721677821.782859,4,821,647,51057,-20755,104116
1721677821.792159,52,517,595,33049,-27965,56253
1721677821.801459,756,563,477,15313,-33522,28875
1721677821.810852,682,134,562,13869,-43882,34098,39453,-7568,61572,,, 157844.700, 40.0102165,-105.2440948, 1595.026,1616.354, 5.396,8.109
1721677821.820148,701,72,519,17422,-41825,54232
1721677821.829444,719,293,550,10273,-24789,62343
1721677821.838740,752,420,649,6300,-3632,65887
1721677821.848036,772,431,707,9800,15653,65047
1721677821.857332,842,394,649,16757,34256,62685
1721677821.866628,932,390,590,24387,51983,57575
1721677821.875924,976,463,498,32682,66675,54337
1721677821.885132,945,513,431,41327,78531,56402,42309,-4962,58489,84522,38052, 157844.800, 40.0102170,-105.2440946, 1594.890,1616.219, 5.368,8.060
1721677821.894428,992,401,391,50444,89066,57067
1721677821.903724,1137,201,324,60262,99522,53690
1721677821.913020,1322,10,311,71672,110223,50977
1721677821.922316,1385,-68,450,84884,117617,49542
1721677821.931612,1632,-150,672,98438,118912,41203
1721677821.940908,1732,-207,914,109489,114633,29111
1721677821.950204,1867,-93,1114,115903,103503,15697
1721677821.959503,1946,72,1139,119359,86835,10123,46209,-7281,51391,84533,38054
1721677821.968799,1785,71,1189,124417,66543,9301
1721677821.978095,1566,-4,1188,133237,44922,16887
1721677821.987391,1302,-129,1120,141129,27151,29330
1721677821.996687,1090,-213,1009,144822,16633,41055
1721677822.005983,935,-248,872,144060,13912,51878
1721677822.015279,875,-220,743,140998,15977,59036
1721677822.024575,865,-212,623,139073,19433,62623
1721677822.033875,899,-191,564,139335,21463,60891,47863,-6243,48223,,, 157844.900, 40.0102186,-105.2440957, 1594.776,1616.104, 5.349,8.017
1721677822.043171,921,-177,514,139677,19346,58345
1721677822.052467,892,-122,561,137839,12836,60392
1721677822.061763,829,-92,579,132904,7245,69291
1721677822.071059,757,-48,625,123927,3753,76361
1721677822.080355,630,-47,639,113103,4130,88541
1721677822.089651,615,26,598,102463,7953,99680
1721677822.098947,661,95,572,92103,12372,111562
1721677822.108338,667,114,562,83458,16178,116768,49432,1434,45849,84529,38059, 157845.000, 40.0102185,-105.2440968, 1594.709,1616.037, 5.336,7.985
1721677822.117634,672,133,561,77779,18261,115683
1721677822.126930,706,129,566,74139,19293,113531
1721677822.136226,726,126,559,70727,20527,111370
1721677822.145522,733,109,528,66159,22058,111982
1721677822.154818,737,68,483,59833,22391,116471
1721677822.164114,705,24,439,52002,20203,122701
1721677822.173410,684,8,431,43864,15531,129141
1721677822.182709,654,24,471,36637,10237,133420,,,,84535,38066, 157845.100, 40.0102200,-105.2440974, 1594.575,1615.903, 5.327,7.956
1721677822.192005,613,93,486,30485,7420,134793
1721677822.201301,589,163,474,25647,7621,132571
1721677822.210597,558,205,486,23100,9380,128327
1721677822.219893,531,239,499,22637,11900,123051
1721677822.229189,506,200,480,23380,15382,117425
1721677822.238485,567,144,516,24640,19433,110906
1721677822.247781,653,138,579,25498,23117,105157
1721677822.257080,756,139,639,25052,23887,100056,49249,10687,44372,84529,38070
1721677822.266376,628,224,471,22689,19346,96013
1721677822.275672,442,261,599,18445,11506,98271
1721677822.284968,446,202,661,15217,10342,107301
1721677822.294264,460,181,709,10579,15706,115815
1721677822.303560,456,165,773,3553,22050,114808
1721677822.312856,506,218,700,-3640,25970,108990
1721677822.322152,485,348,701,-9222,27833,99172
1721677822.331482,431,302,917,-9371,27632,89048,47454,18927,42480,,, 157845.200, 40.0102219,-105.2440993, 1594.561,1615.889, 5.316,7.918
1721677822.340778,556,319,931,-4375,26048,77070
1721677822.350074,622,452,888,-761,22321,64933
1721677822.359370,598,467,843,1304,14516,51432
1721677822.368666,568,427,848,4218,5232,39313
1721677822.377962,538,442,862,8654,-4472,28481
1721677822.387258,486,432,869,12767,-13222,18366
1721677822.396554,442,406,868,15339,-19504,11261
1721677822.405854,406,378,849,16459,-23433,6107,46002,20526,44073,84529,38077, 157845.300, 40.0102235,-105.2441017, 1594.607,1615.935, 5.305,7.878
1721677822.415150,371,378,830,15768,-25288,2747
1721677822.424446,362,391,807,13808,-25629,-473
1721677822.433742,359,401,799,11340,-25244,-5408
1721677822.443038,358,403,818,9433,-24807,-11839
1721677822.452334,353,414,849,8383,-24290,-19950
1721677822.461630,348,391,875,7088,-23617,-29453
1721677822.470926,381,366,921,4734,-22304,-38640
1721677822.480225,407,350,983,1015,-19355,-45229,46209,19421,43927,84540,38090
1721677822.489521,447,343,1012,-4777,-14079,-48274
1721677822.498817,533,379,962,-12346,-7184,-47478
1721677822.508113,565,366,1061,-20755,-587,-41502
1721677822.517409,536,297,1116,-28306,4655,-33040
1721677822.526705,579,339,1006,-35455,7490,-28210
1721677822.536001,572,390,953,-42945,7026,-26329
1721677822.545297,551,361,949,-49857,4270,-29847
1721677822.554627,580,398,954,-53681,-79,-37267,,,,84534,38092, 157845.400, 40.0102240,-105.2441033, 1594.612,1615.940, 5.293,7.840
1721677822.563923,615,426,984,-53418,-5530,-44170
1721677822.573219,593,345,1058,-50058,-10702,-51617
1721677822.582515,620,317,1084,-47092,-14272,-58232
1721677822.591811,618,297,1060,-48055,-15532,-61268
1721677822.601107,613,301,1121,-52771,-14307,-65328
1721677822.610403,608,278,1180,-59123,-10203,-68478
1721677822.619699,615,281,1197,-65467,-2267,-73815
1721677822.628998,708,369,1141,-69772,9213,-81209,47375,17144,42700,,, 157845.500, 40.0102244,-105.2441045, 1594.503,1615.831, 5.278,7.793
1721677822.638294,774,382,1040,-70787,21717,-85785
1721677822.647590,1075,531,749,-68171,30782,-85768
1721677822.656886,989,563,697,-64618,34317,-90887
1721677822.666182,902,466,695,-57951,26346,-96084
1721677822.675478,852,333,691,-48763,12075,-93792
1721677822.684774,724,277,764,-40897,630,-95682
1721677822.694070,650,300,766,-35866,-5277,-98613
1721677822.703369,640,329,732,-33293,-4349,-101308,49279,11499,40911,84521,38090, 157845.600, 40.0102249,-105.2441058, 1594.456,1615.784, 5.265,7.742
1721677822.712665,640,347,713,-30852,1111,-103189
1721677822.721961,627,314,674,-26906,8076,-103023
1721677822.731257,632,291,579,-22155,14726,-101142
1721677822.740553,542,230,548,-18287,19985,-98797
1721677822.749849,464,210,490,-15575,22960,-96268
1721677822.759145,507,114,398,-13781,25742,-89163
1721677822.768441,533,73,379,-12845,30397,-86590
1721677822.777802,558,72,392,-13265,32943,-84805,50646,5969,38537,84532,38092
1721677822.787098,568,87,384,-15041,31745,-81262
1721677822.796394,587,84,368,-17543,27947,-76992
1721677822.805690,613,-15,263,-19871,22155,-71645
1721677822.814986,438,112,495,-22041,15496,-66194
1721677822.824282,484,128,427,-25795,9205,-61320
1721677822.833578,495,196,413,-29085,5923,-52667
1721677822.842874,475,267,452,-30257,4383,-44293
1721677822.852173,515,287,436,-29522,3587,-37179,50646,5401,38281,84526,38092, 157845.700, 40.0102220,-105.2441081, 1594.362,1615.691, 5.252,7.696
1721677822.861469,549,258,406,-28367,2388,-27615
1721677822.870765,531,243,405,-27623,-429,-18078
1721677822.880061,533,202,415,-27685,-4463,-10789
1721677822.889357,500,137,429,-28551,-8470,-5697
1721677822.898653,485,141,463,-30852,-11104,-4008
1721677822.907949,553,196,472,-34676,-10815,-7044
1721677822.917245,652,241,527,-38631,-9389,-11104
1721677822.926545,731,343,612,-41466,-8567,-14237,,,,,, 157845.800, 40.0102155,-105.2441115, 1594.123,1615.451, 5.230,7.644
1721677822.935841,820,469,682,-43890,-8077,-16214
1721677822.945137,842,475,694,-46016,-6484,-15680
1721677822.954433,848,428,659,-47731,-5145,-10789
1721677822.963729,874,470,642,-51353,-3457,-3229
1721677822.973025,861,581,649,-56988,-2109,4515
1721677822.982321,838,683,615,-61118,-1234,10701
1721677822.991617,780,680,574,-60567,498,14218
1721677823.000946,710,647,549,-55361,4130,13265,50665,6573,37713,84529,38097, 157845.900, 40.0102154,-105.2441108, 1593.948,1615.276, 5.210,7.599
1721677823.010242,760,610,570,-47967,10193,6667
1721677823.019538,792,553,529,-40573,16633,271
1721677823.028834,771,550,546,-34755,20221,-4900
1721677823.038130,790,599,525,-30703,22295,-8637
1721677823.047426,845,652,480,-27300,24675,-10220
1721677823.056722,875,662,458,-23047,26530,-8610
1721677823.066018,926,657,448,-18095,26171,-3150
1721677823.075318,971,640,450,-13571,23598,5337,50927,7666,35546,84526,38103
1721677823.084614,940,637,465,-9073,19250,14297
1721677823.093910,911,579,501,-3430,14332,20755
1721677823.103206,892,542,553,3623,11243,24036
1721677823.112502,902,542,565,10798,10736,21988
1721677823.121798,960,561,552,17588,12127,15942
1721677823.131094,1052,621,543,24535,13807,9563
1721677823.140390,1098,655,524,31614,13160,6483
1721677823.149689,1073,569,480,39314,9003,7691,50854,9136,34936,84534,38103, 157846.000, 40.0102171,-105.2441125, 1593.844,1615.172, 5.188,7.549
1721677823.158985,1011,478,467,46822,3710,11331
1721677823.168281,995,395,480,52360,682,14918
1721677823.177577,1066,337,517,54915,-97,17561
1721677823.186873,1169,311,590,55239,-665,19573
1721677823.196169,1238,284,681,54889,-3553,21586
1721677823.205465,1290,290,746,54557,-9144,22986
1721677823.214761,1291,319,777,53612,-15925,23537
1721677823.224060,1237,315,794,52807,-23468,25278,49981,11425,37213,,, 157846.100, 40.0102171,-105.2441148, 1593.627,1614.955, 5.171,7.490
1721677823.233356,1144,301,806,52544,-30547,27702
1721677823.242652,1062,297,795,52343,-34755,29566
1721677823.251948,977,298,787,51932,-34887,30843
1721677823.261244,906,293,751,51127,-31492,31228
1721677823.270540,826,267,712,50059,-25043,31325
1721677823.279836,770,241,664,49035,-16853,31762
1721677823.289132,754,223,609,47749,-7884,33468
1721677823.298462,744,196,572,45973,822,35201,49407,14080,36700,84528,38106, 157846.200, 40.0102164,-105.2441180, 1593.036,1614.364, 5.153,7.414
1721677823.307758,728,189,535,44363,8023,36820
1721677823.317054,685,174,492,42762,12652,37896
1721677823.326350,634,152,453,41449,15260,37747
1721677823.335646,593,142,417,40714,17167,36365
1721677823.344942,558,131,388,40198,18725,33573
1721677823.354238,535,123,367,39428,19486,29645
1721677823.363534,501,132,357,38623,19320,25873
1721677823.372834,483,133,348,37573,18287,22627,,,,84524,38115
1721677823.382130,477,152,351,36120,17001,21096
1721677823.391426,443,172,355,34099,15855,21560
1721677823.400722,422,184,339,31903,14892,23345
1721677823.410018,427,182,328,29059,13553,26442
1721677823.419314,427,191,338,26408,11348,29286
1721677823.428610,433,201,340,24465,8137,30826
1721677823.437906,446,209,355,22960,4077,30563
1721677823.447235,475,215,387,21709,-630,28227,48687,16662,36572,84530,38123, 157846.300, 40.0102151,-105.2441204, 1592.648,1613.976, 5.133,7.337
1721677823.456535,510,247,425,20895,-5399,24351
1721677823.465835,531,288,452,20572,-10037,19118
1721677823.475135,561,317,476,20554,-15015,13212
1721677823.484435,596,334,517,20808,-20265,8338
1721677823.493735,613,345,564,20869,-25122,4313
1721677823.503035,617,364,606,20397,-29295,1067
1721677823.512335,628,360,646,19040,-32498,-342
1721677823.521637,650,363,686,16564,-34125,148,47882,17901,39062,,, 157846.400, 40.0102136,-105.2441238, 1592.181,1613.509, 5.116,7.263
1721677823.530937,676,363,721,13003,-34379,2476
1721677823.540237,700,378,730,9022,-34344,5267
1721677823.549537,711,372,751,5242,-34817,6912
1721677823.558837,715,358,775,2240,-36383,5985
1721677823.568137,731,356,817,70,-38912,2983
1721677823.577437,727,387,871,-1321,-41790,-1610
1721677823.586737,745,409,890,-1793,-44328,-6974
1721677823.596009,767,393,898,-1592,-46227,-10920,46807,18157,42407,84533,38132, 157846.500, 40.0102136,-105.2441276, 1591.737,1613.065, 5.098,7.210
1721677823.605305,742,377,886,-1671,-48117,-13624
1721677823.614601,710,326,858,-3027,-50357,-14044
1721677823.623897,663,283,848,-5880,-52133,-12845
1721677823.633193,640,285,838,-10185,-52212,-11769
1721677823.642489,624,287,857,-15356,-49604,-11192
1721677823.651785,625,303,865,-20746,-45150,-11043
1721677823.661081,643,329,866,-26600,-39935,-9914
1721677823.670380,644,331,872,-31771,-35079,-8987,46386,18487,43792,84532,38137
1721677823.679680,641,369,843,-34702,-31220,-9407
1721677823.688980,623,399,818,-35367,-27825,-11944
1721677823.698280,633,426,788,-33302,-24570,-15322
1721677823.707580,665,459,790,-30135,-20965,-17448
1721677823.716880,710,534,793,-26740,-18139,-18760
1721677823.726180,724,541,773,-22391,-16625,-19110
1721677823.735480,745,504,759,-17648,-16092,-17859
1721677823.744782,777,465,735,-13851,-16004,-14508,,,,84530,38146, 157846.600, 40.0102141,-105.2441273, 1591.347,1612.675, 5.080,7.155
1721677823.754078,824,455,730,-11375,-16205,-13510
1721677823.763374,865,491,774,-9222,-16100,-15523
1721677823.772670,918,456,857,-6238,-14788,-19460
1721677823.781966,1003,431,879,-2546,-12110,-25419
1721677823.791262,1075,434,934,-70,-10177,-34187
1721677823.800558,1100,453,995,2442,-10667,-37275
1721677823.809854,1114,416,996,6957,-9844,-31763
1721677823.819153,1061,396,974,9634,-9267,-26565,46417,17486,44934,,, 157846.700, 40.0102158,-105.2441301, 1590.986,1612.314, 5.056,7.089
1721677823.828449,972,346,926,8532,-8050,-14525
1721677823.837745,908,336,869,4883,-4367,52
1721677823.847041,798,364,820,-96,96,14096
1721677823.856337,696,398,760,-5057,4331,25165
1721677823.865633,655,331,693,-8925,7516,26993
1721677823.874929,620,292,633,-11917,10815,25147
1721677823.884225,564,273,596,-13361,17255,30397
1721677823.893524,495,292,566,-13457,25856,34623,46026,20123,43426,84532,38146, 157846.800, 40.0102163,-105.2441330, 1590.643,1611.971, 5.023,7.027
1721677823.902820,413,311,556,-13212,34693,34947
1721677823.912116,331,400,564,-13825,42761,29662
1721677823.921412,238,463,614,-16458,50093,21988
1721677823.930708,254,359,554,-20965,56586,-1400
1721677823.940004,302,362,482,-27755,62028,-27904
1721677823.949300,356,333,439,-33197,69457,-36330
1721677823.958596,389,302,409,-36995,77962,-43785
1721677823.967926,394,331,405,-39716,86091,-47845,48693,18109,36083,84532,38146
1721677823.977222,416,391,397,-39611,93905,-49534
1721677823.986518,405,413,420,-34807,100826,-52780
1721677823.995814,258,371,453,-24447,105306,-59562
1721677824.005110,338,517,402,-11637,106986,-64322
1721677824.014406,438,629,288,298,103302,-48370
1721677824.023702,321,439,508,8637,92233,-42044
1721677824.032998,325,171,522,13134,80412,-54653
1721677824.042298,476,157,420,9958,72493,-63175,50286,15142,31152,84534,38148, 157846.900, 40.0102170,-105.2441348, 1590.279,1611.607, 4.986,6.954
1721677824.051594,673,213,307,-2266,66640,-70893
1721677824.060890,792,228,322,-16388,58913,-74822
1721677824.070186,857,258,436,-29041,48632,-67883
1721677824.079482,948,352,554,-40267,38001,-51389
1721677824.088778,1025,407,645,-49297,27842,-30468
1721677824.098074,1011,419,692,-55545,17027,-11585
1721677824.107370,995,423,678,-60707,5880,787
1721677824.116669,987,420,644,-65835,-3649,6851,,,,,, 157847.000, 40.0102180,-105.2441359, 1590.058,1611.386, 4.953,6.896
1721677824.125965,971,401,634,-71128,-11157,8627
1721677824.135261,942,365,620,-76702,-16232,7883
1721677824.144557,944,352,591,-82188,-18340,7603
1721677824.153853,941,371,570,-87115,-17177,11051
1721677824.163149,936,385,556,-90606,-13502,16616
1721677824.172445,939,382,547,-92233,-7525,20623
1721677824.181741,986,384,538,-92172,288,24141
1721677824.191071,977,422,564,-90755,9161,28840,49743,17388,29260,84537,38150, 157847.100, 40.0102189,-105.2441376, 1589.740,1611.068, 4.918,6.837
1721677824.200367,944,449,593,-88138,17753,36653
1721677824.209663,914,444,610,-84271,26608,40372
1721677824.218959,911,449,606,-79931,36058,34623
1721677824.228255,954,435,581,-75451,45850,20903
1721677824.237551,994,438,556,-70105,55186,4646
1721677824.246847,1006,449,520,-63157,63918,-9205
1721677824.256143,987,474,472,-54162,72878,-20405
1721677824.265442,964,504,409,-43408,82460,-31553,49517,17358,21936,84533,38150
1721677824.274738,957,531,344,-31228,92793,-44538
1721677824.284034,987,513,295,-18278,102751,-58809
1721677824.293330,1075,447,246,-5591,111448,-74122
1721677824.302626,1158,395,209,5889,117696,-89224
1721677824.311922,1244,351,212,15610,121248,-100048
1721677824.321218,1309,290,229,23984,122745,-104983
1721677824.330514,1342,252,244,31448,122893,-103522
1721677824.339814,1326,218,248,37634,122097,-96775,48822,12078,12213,84531,38164, 157847.200, 40.0102203,-105.2441394, 1589.590,1610.918, 4.875,6.765
1721677824.349110,1315,174,229,42517,121196,-86442
1721677824.358406,1300,125,192,45763,119997,-75128
1721677824.367702,1257,93,159,47242,117346,-63350
1721677824.376998,1193,91,128,47215,112892,-48738
1721677824.386294,1110,103,111,46288,107336,-30827
1721677824.395590,1059,130,93,44879,101010,-14998
1721677824.404886,1040,160,91,43444,93940,-3185
1721677824.414215,1034,163,107,42560,85645,6518,45629,15026,6500,,, 157847.300, 40.0102212,-105.2441404, 1589.650,1610.978, 4.825,6.669
1721677824.423511,976,163,118,42272,75906,14105
1721677824.432807,879,178,113,42420,65415,19451
1721677824.442103,805,204,107,43444,56411,23983
1721677824.451399,736,221,105,45982,49743,28568
1721677824.460695,702,231,112,49972,44826,31421
1721677824.469991,665,240,149,54898,40958,31596
1721677824.479287,643,249,208,60778,37345,30625
1721677824.488587,663,247,245,67157,33600,28393,43493,19848,5975,84532,38166, 157847.400, 40.0102208,-105.2441415, 1589.376,1610.704, 4.793,6.596
1721677824.497883,696,236,254,73492,29225,24535
1721677824.507179,722,240,263,79083,23563,19565
1721677824.516475,783,320,294,83965,16695,14498
1721677824.525771,683,225,321,88253,9450,9975
1721677824.535067,711,171,309,85138,6396,19302
1721677824.544363,762,215,220,75137,7078,23100
1721677824.553659,703,199,218,64497,6536,20020
1721677824.563050,686,205,190,51599,7813,24185,,,,84538,38168
1721677824.572346,690,203,177,40067,9607,30721
1721677824.581642,694,222,169,30730,11462,38403
1721677824.590938,713,294,153,24422,11725,41396
1721677824.600234,645,600,190,22182,10342,39672
1721677824.609530,556,450,273,21114,7262,21166
1721677824.618826,507,488,300,12180,2266,-16617
1721677824.628122,567,541,266,-4576,708,-20108
1721677824.637360,691,573,169,-24080,2528,-7692,41851,21777,4608,84532,38168, 157847.500, 40.0102203,-105.2441422, 1588.959,1610.287, 4.740,6.537
1721677824.646656,834,531,77,-41877,3360,-2949
1721677824.655952,799,308,146,-53987,87,-10317
1721677824.665248,726,232,121,-57645,-5854,-15190
1721677824.674544,743,338,147,-54425,-9870,-910
1721677824.683840,831,668,223,-48632,-10544,19757
1721677824.693136,920,921,257,-43942,-10614,34930
1721677824.702432,880,685,185,-45368,-10185,33416
1721677824.711731,854,458,218,-55912,-10570,11996,41094,20672,2246,,, 157847.600, 40.0102197,-105.2441433, 1588.712,1610.041, 4.718,6.503
1721677824.721027,803,516,299,-69431,-13440,-8024
1721677824.730323,771,639,314,-77761,-14928,-13414
1721677824.739619,924,642,151,-79721,-12233,-5452
1721677824.748915,1020,501,-5,-78338,-6169,10141
1721677824.758211,919,371,-102,-77420,691,27807
1721677824.767507,909,436,-97,-77953,7236,36933
1721677824.776803,943,457,19,-82136,12635,35481
1721677824.786103,941,449,121,-90903,15548,21236,39007,18200,-2496,84527,38173, 157847.700, 40.0102210,-105.2441433, 1588.637,1609.965, 4.696,6.482
1721677824.795399,1000,589,181,-98901,18532,10307
1721677824.804695,1093,656,127,-100721,22907,4243
1721677824.813991,1124,693,109,-96145,26608,-3019
1721677824.823287,1127,638,63,-87272,26110,-7140
1721677824.832583,1125,556,10,-77035,20991,-10990
1721677824.841879,1054,464,-43,-68433,13387,-10483
1721677824.851175,1012,460,-37,-64111,7157,-5618
1721677824.860474,1020,473,-66,-63008,3088,-622,39001,14776,-4119,84527,38184
1721677824.869770,1067,520,-53,-63061,-753,-3194
1721677824.879066,1123,603,-78,-63682,-5504,-10763
1721677824.888362,1175,664,-106,-61932,-11813,-20712
1721677824.897658,1155,744,-60,-55378,-18454,-32349
1721677824.906954,1229,829,20,-45001,-23302,-41318
1721677824.916250,1269,805,49,-32252,-27143,-46813
1721677824.925546,1272,698,62,-16957,-33670,-46358
1721677824.934876,1251,552,87,-2371,-41887,-39349,,,,84531,38181, 157847.800, 40.0102209,-105.2441445, 1588.524,1609.852, 4.673,6.459
1721677824.944172,1243,436,94,7324,-49902,-28648
1721677824.953468,1213,395,84,10772,-57855,-16669
1721677824.962764,1111,435,107,9722,-65555,-3247
1721677824.972060,997,528,143,7377,-71225,8338
1721677824.981356,864,585,162,6528,-74253,14393
1721677824.990652,749,586,183,8357,-74017,13107
1721677824.999948,669,572,184,11550,-70910,4497
1721677825.009247,626,571,167,15252,-63937,-6764,41278,15399,-805,,, 157847.900, 40.0102191,-105.2441467, 1588.357,1609.685, 4.655,6.437
1721677825.018543,615,586,162,20764,-52430,-14114
1721677825.027839,660,540,145,27493,-37599,-15978
1721677825.037135,702,405,136,34020,-23083,-17579
1721677825.046431,749,274,98,39454,-12215,-21202
1721677825.055727,775,199,50,41992,-4848,-23897
1721677825.065023,759,141,17,40574,-954,-27449
1721677825.074319,739,136,9,36488,-272,-30914
1721677825.083618,668,171,21,31255,17,-29234,41131,16021,-555,84531,38181, 157848.000, 40.0102168,-105.2441492, 1588.271,1609.599, 4.634,6.415
1721677825.092914,596,224,24,26592,2135,-23975
1721677825.102210,536,258,-22,22680,6055,-18279
1721677825.111506,508,264,-17,18655,9905,-14254
1721677825.120802,457,268,0,13939,13693,-13633
1721677825.130098,489,284,45,8208,18620,-11472
1721677825.139394,613,275,-65,2538,26206,-12320
1721677825.148690,704,313,-121,-2082,34772,-10973
1721677825.158020,633,333,67,-7183,39620,-2345,38415,15777,-4272,84523,38186
1721677825.167316,575,281,99,-14052,41221,5162
1721677825.176612,648,254,21,-21297,46243,6466
1721677825.185908,717,333,-1,-29015,51327,8785
1721677825.195204,736,404,39,-36426,52465,10622
1721677825.204500,778,435,-28,-42595,49087,7490
1721677825.213796,809,469,0,-47355,42463,-2993
1721677825.223092,867,517,14,-49332,33005,-17745
1721677825.232392,773,271,-30,-48597,22540,-38562,36975,11187,-7580,,, 157848.100, 40.0102155,-105.2441519, 1588.325,1609.653, 4.614,6.395
1721677825.241688,657,452,-120,-46261,16021,-56692
1721677825.250984,660,355,-221,-43855,15881,-60612
1721677825.260280,817,336,-309,-44152,16450,-62222
1721677825.269576,822,305,-297,-44738,17071,-62528
1721677825.278872,782,380,-283,-43916,19801,-55519
1721677825.288168,767,403,-235,-40731,27693,-43155
1721677825.297464,855,426,-272,-36557,38867,-33128
1721677825.306763,890,448,-274,-32812,49656,-28175,,,,84527,38195, 157848.200, 40.0102149,-105.2441534, 1588.564,1609.892, 4.597,6.374
1721677825.316059,886,517,-258,-29671,57067,-29120
1721677825.325355,916,534,-270,-26250,61906,-31990
1721677825.334651,972,463,-334,-21043,66010,-35709
1721677825.343947,1020,523,-323,-15067,68293,-38483
1721677825.353243,1024,590,-341,-9170,68083,-39682
1721677825.362539,1057,590,-364,455,65800,-39550
1721677825.371835,1124,515,-395,13178,62230,-40250
1721677825.381195,1182,443,-415,25743,56638,-41152,32684,8874,-12329,84534,38197
1721677825.390491,1206,370,-419,35744,48527,-40662
1721677825.399787,1225,319,-410,42202,38806,-37135
1721677825.409083,1220,294,-384,45395,28376,-30109
1721677825.418379,1202,248,-342,45509,17027,-23188
1721677825.427675,1199,192,-331,42814,4331,-19399
1721677825.436971,1189,167,-345,37608,-9083,-19277
1721677825.446267,1182,213,-355,30363,-22015,-21989
1721677825.455567,1195,304,-370,22952,-33172,-27265,32257,9863,-12493,84527,38206, 157848.300, 40.0102143,-105.2441547, 1588.685,1610.013, 4.584,6.351
1721677825.464863,1240,418,-375,18533,-41598,-36444
1721677825.474159,1295,520,-360,19828,-46760,-48292
1721677825.483455,1344,522,-362,28000,-48992,-60629
1721677825.492751,1451,473,-314,41510,-48965,-68845
1721677825.502047,1462,444,-289,56543,-47767,-69484
1721677825.511343,1492,374,-293,71960,-45990,-68128
1721677825.520639,1474,278,-241,85882,-44275,-57435
1721677825.529938,1424,207,-203,95585,-43374,-43155,34368,13098,-9765,,, 157848.400, 40.0102136,-105.2441557, 1588.701,1610.029, 4.556,6.297
1721677825.539234,1331,151,-164,100337,-43418,-26478
1721677825.548530,1232,117,-120,100100,-44022,-11472
1721677825.557826,1100,87,-104,95655,-44564,-1085
1721677825.567122,956,93,-80,88375,-44494,5118
1721677825.576418,841,99,-62,79792,-42770,8575
1721677825.585714,764,131,-58,71698,-38614,8190
1721677825.595010,676,188,-48,65258,-31903,7306
1721677825.604340,598,219,-30,60962,-22847,6081,33587,16552,-8941,84528,38208, 157848.500, 40.0102122,-105.2441577, 1588.774,1610.102, 4.536,6.262
1721677825.613636,611,126,25,59115,-12425,2371
1721677825.622932,623,61,-66,58958,-1322,-4892
1721677825.632228,647,58,-55,56595,8356,-12504
1721677825.641524,629,78,-16,50103,16633,-16144
1721677825.650820,599,162,-7,43260,24403,-19224
1721677825.660116,561,195,-1,36952,31430,-17308
1721677825.669412,530,225,-20,31649,37712,-13633
1721677825.678711,521,232,-60,27694,42140,-11288,30859,16802,-11206,84537,38217
1721677825.688007,516,235,-89,24404,44310,-12154
1721677825.697303,532,255,-102,21202,44336,-16660
1721677825.706599,571,265,-116,18139,42350,-24562
1721677825.715895,620,302,-123,15794,39042,-33417
1721677825.725191,665,356,-115,14473,34947,-39962
1721677825.734487,698,375,-117,14587,29995,-43602
1721677825.743783,791,366,-135,15978,24228,-45247
1721677825.753296,1067,298,-184,18043,18173,-45028,,,,84531,38224, 157848.600, 40.0102108,-105.2441588, 1588.786,1610.114, 4.515,6.235
1721677825.762592,1021,229,-137,20090,11637,-41353
1721677825.771888,993,276,-142,20895,2625,-25235
1721677825.781184,896,272,-120,18900,-7219,-5399
1721677825.790480,888,269,-123,13904,-17352,5652
1721677825.799776,845,271,-147,7263,-27125,11427
1721677825.809072,819,309,-156,-227,-36278,13921
1721677825.818368,808,357,-172,-7428,-43917,13623
1721677825.827484,792,456,-189,-12766,-49272,11567,31304,17425,-10638,,, 157848.700, 40.0102089,-105.2441591, 1588.897,1610.225, 4.492,6.207
1721677825.836780,784,538,-186,-15286,-52115,8881
1721677825.846076,774,596,-190,-13868,-52255,4261
1721677825.855372,797,621,-189,-8321,-49849,-2083
1721677825.864668,836,605,-193,342,-45395,-7788
1721677825.873964,876,534,-177,10220,-40110,-13029
1721677825.883260,928,440,-174,19014,-35403,-18664
1721677825.892556,989,360,-144,24640,-32025,-22470
1721677825.901856,1070,271,-68,25918,-30092,-22882,32843,18017,-9277,84536,38222, 157848.800, 40.0102077,-105.2441612, 1588.775,1610.103, 4.454,6.142
1721677825.911152,1112,263,-125,22969,-30170,-20633
1721677825.920448,1093,219,-113,15155,-33277,-13817
1721677825.929744,1073,295,-103,4690,-36864,-2538
1721677825.939040,1079,336,-100,-4585,-40478,7157
1721677825.948336,1081,384,-108,-12617,-44547,15592
1721677825.957632,1068,417,-95,-18768,-49613,20466
1721677825.966928,1101,436,-81,-23056,-54592,20973
1721677825.976319,1153,432,-67,-25768,-58757,18593,34680,17962,-7659,84533,38224
1721677825.985619,1166,414,-56,-27440,-61627,16388
1721677825.994919,1147,456,-49,-28507,-62283,18401
1721677826.004219,1151,457,-28,-29190,-61644,22277
1721677826.013519,1171,460,-15,-29636,-60935,23327
1721677826.022819,1173,451,-26,-29741,-60017,22347
1721677826.032119,1187,455,-45,-30108,-59203,18882
1721677826.041419,1208,504,-54,-31097,-58223,14796
1721677826.050721,1223,579,-48,-31771,-57077,10150,37060,16607,-6024,84531,38226, 157848.900, 40.0102066,-105.2441627, 1588.654,1609.982, 4.424,6.103
1721677826.060017,1246,638,-32,-30870,-56289,2616
1721677826.069313,1268,647,-15,-27238,-55607,-8899
1721677826.078609,1286,604,2,-20930,-54390,-22558
1721677826.087905,1291,518,15,-12678,-51730,-34808
1721677826.097201,1276,430,35,-3841,-47058,-41834
1721677826.106497,1237,347,63,4183,-40224,-41090
1721677826.115793,1169,259,95,10098,-31885,-33565
1721677826.125092,1069,164,116,12819,-23582,-22969,,,,,, 157849.000, 40.0102062,-105.2441645, 1588.713,1610.041, 4.409,6.077
1721677826.134388,960,73,126,11314,-16205,-11970
1721677826.143684,852,19,127,5128,-9433,-1637
1721677826.152980,738,14,118,-4943,-2949,7306
1721677826.162276,645,67,113,-17508,3351,13282
1721677826.171572,579,153,100,-30502,9441,14831
1721677826.180868,562,241,69,-41623,15706,12573
1721677826.190164,574,313,26,-49288,21892,7105
1721677826.199463,594,382,-9,-52701,27492,-823,35827,15576,-7751,84527,38228, 157849.100, 40.0102049,-105.2441657, 1588.794,1610.122, 4.365,5.976
1721677826.208763,629,421,-43,-51843,32663,-9783
1721677826.218063,681,423,-81,-47468,37485,-19259
1721677826.227363,746,392,-124,-40477,41247,-29575
1721677826.236663,814,351,-167,-32357,43671,-41397
1721677826.245963,879,328,-183,-23975,44940,-54732
1721677826.255263,972,290,-192,-15776,45386,-68102
1721677826.264563,1076,234,-202,-7568,45351,-78278
1721677826.273865,1170,151,-214,114,44581,-83510,33673,11724,-10906,84537,38237
1721677826.283161,1247,59,-236,6493,42577,-84272
1721677826.292457,1291,1,-256,10702,39655,-79258
1721677826.301753,1289,-10,-253,12898,36627,-67577
1721677826.311049,1249,-18,-240,13563,33705,-51153
1721677826.320345,1179,-34,-238,13099,30283,-33959
1721677826.329641,1098,-34,-241,11594,26757,-18550
1721677826.338937,1011,-1,-234,8987,23633,-5627
1721677826.348236,921,42,-232,6029,21026,4086,31353,12261,-12713,84533,38237, 157849.200, 40.0102049,-105.2441661, 1588.716,1610.044, 4.326,5.874
1721677826.357532,838,96,-238,3772,18961,9205
1721677826.366828,758,161,-238,3072,17701,9502
1721677826.376124,709,223,-234,4725,17683,5460
1721677826.385420,710,267,-229,9057,19241,-1024
1721677826.394716,746,263,-224,16030,22181,-6983
1721677826.404012,798,230,-230,24404,25068,-11568
1721677826.413308,853,212,-219,32454,26731,-13580
1721677826.422608,906,175,-199,38955,26836,-12828,29504,14123,-13592,,, 157849.300, 40.0102048,-105.2441665, 1588.731,1610.059, 4.285,5.780
1721677826.431904,927,137,-196,43007,24508,-11568
1721677826.441200,941,119,-185,43890,19363,-11279
1721677826.450496,965,134,-169,41510,12705,-11200
1721677826.459792,975,162,-156,37363,6020,-9975
1721677826.469088,989,193,-157,32874,-35,-7692
1721677826.478384,1015,212,-155,28849,-5172,-4130
1721677826.487680,1041,227,-156,25699,-9197,848
1721677826.497010,1051,246,-161,23477,-12382,7315,,,,84534,38242, 157849.400, 40.0102048,-105.2441667, 1588.720,1610.048, 4.270,5.747
1721677826.506310,1042,254,-158,21875,-15190,14297
1721677826.515610,1032,260,-159,20764,-17325,20300
1721677826.524910,1024,281,-156,19854,-18743,24710
1721677826.534210,1009,298,-147,19128,-19145,27903
1721677826.543510,990,294,-143,18883,-19495,29146
1721677826.552810,972,281,-144,18358,-19154,28280
1721677826.562110,958,270,-145,17387,-18288,25086
1721677826.571411,961,275,-147,16083,-16862,20002,28979,16754,-12890,84528,38244
1721677826.580707,974,306,-139,15155,-14394,14498
1721677826.590003,991,324,-131,15479,-10684,10508
1721677826.599299,991,316,-132,17509,-6327,8041
1721677826.608595,989,301,-137,20397,-2030,6763
1721677826.617891,993,292,-138,22768,1855,5915
1721677826.627187,984,295,-145,24124,4567,4165
1721677826.636483,968,311,-149,24553,5626,402
1721677826.645783,971,330,-155,24544,5836,-5495,27819,18682,-12982,84533,38248, 157849.500, 40.0102048,-105.2441672, 1588.639,1609.967, 4.246,5.692
1721677826.655083,997,352,-166,25227,6116,-11988
1721677826.664383,1024,359,-182,27292,6851,-16932
1721677826.673683,1041,356,-190,30468,7525,-20887
1721677826.682983,1072,347,-200,34152,7227,-24605
1721677826.692283,1127,336,-205,37958,5941,-28587
1721677826.701583,1198,327,-203,41528,2940,-34782
1721677826.710883,1259,313,-205,44783,-2442,-44442
1721677826.720185,1299,277,-212,48204,-9529,-55397,28778,20288,-11389,,, 157849.600, 40.0102030,-105.2441669, 1588.445,1609.773, 4.199,5.599
1721677826.729485,1327,234,-229,52019,-16835,-63928
1721677826.738785,1342,196,-220,55939,-23170,-67550
1721677826.748085,1321,132,-207,59518,-28105,-64523
1721677826.757385,1268,37,-189,61653,-31789,-55580
1721677826.766685,1197,-61,-177,60393,-34160,-42508
1721677826.775985,1095,-105,-167,54898,-34204,-24780
1721677826.785285,981,-104,-142,45640,-31019,-3334
1721677826.794556,864,-80,-125,33810,-24964,18270,27209,23242,-10858,84534,38253, 157849.700, 40.0102035,-105.2441683, 1588.735,1610.064, 4.156,5.511
1721677826.803852,761,-44,-124,21140,-16792,36085
1721677826.813148,688,9,-129,8864,-7587,47818
1721677826.822444,653,81,-137,-2161,2038,53191
1721677826.831740,641,156,-152,-10473,12232,53926
1721677826.841036,643,236,-177,-15111,22365,50741
1721677826.850332,660,304,-189,-15863,31823,44476
1721677826.859628,695,333,-202,-13212,40005,36260
1721677826.868927,752,316,-227,-7918,46331,26171,23486,24139,-12518,84527,38248
1721677826.878223,823,289,-254,-1566,50295,14463
1721677826.887519,900,268,-276,4489,51983,2598
1721677826.896815,972,256,-292,9783,51677,-8584
1721677826.906111,1047,243,-310,14665,49778,-18673
1721677826.915407,1124,244,-321,19180,46803,-26977
1721677826.924703,1199,239,-313,23433,42840,-31877
1721677826.933999,1270,213,-316,27440,38185,-32270
1721677826.943451,1323,183,-316,30783,32672,-28289,,,,84530,38253, 157849.800, 40.0102039,-105.2441696, 1588.838,1610.166, 4.128,5.462
1721677826.952747,1344,138,-306,32612,26783,-18769
1721677826.962043,1326,101,-304,32410,20930,-5268
1721677826.971339,1265,99,-292,29628,15303,9423
1721677826.980635,1195,137,-281,24605,10858,23520
1721677826.989931,1128,196,-253,19040,9003,37651
1721677826.999227,1066,208,-237,14359,10211,51292
1721677827.008523,1027,200,-241,10264,13571,63087
1721677827.017701,1012,207,-240,5828,18480,72940,19421,27093,-12390,,, 157849.900, 40.0102031,-105.2441704, 1588.748,1610.076, 4.107,5.433
1721677827.026997,993,241,-249,1225,24517,82398
1721677827.036293,956,280,-251,-2870,31473,91796
1721677827.045589,911,319,-252,-6536,38018,98218
1721677827.054885,861,343,-249,-9703,43260,99636
1721677827.064181,820,348,-255,-12643,47110,96766
1721677827.073477,793,352,-274,-15715,49962,91700
1721677827.082773,757,398,-282,-19171,51318,84516
1721677827.092072,724,452,-281,-22417,51345,74978,11700,28350,-14044,84530,38262, 157850.000, 40.0102036,-105.2441706, 1588.722,1610.050, 4.074,5.376
1721677827.101368,731,478,-282,-24456,50452,63183
1721677827.110664,765,480,-283,-24613,49332,50391
1721677827.119960,811,447,-285,-22671,48886,41273
1721677827.129256,870,403,-282,-19486,49157,37913
1721677827.138552,905,358,-272,-16861,48711,38298
1721677827.147848,916,308,-266,-15636,47066,41518
1721677827.157144,916,267,-279,-16222,44686,48588
1721677827.166474,873,292,-272,-19180,41440,57303,5444,27630,-15386,84528,38264
1721677827.175774,772,333,-244,-24202,36802,64242
1721677827.185074,660,363,-253,-30310,31088,67488
1721677827.194374,553,391,-268,-37231,24920,65940
1721677827.203674,458,422,-305,-44975,19923,59736
1721677827.212974,368,492,-349,-52928,16152,49813
1721677827.222274,322,531,-379,-59753,14140,36461
1721677827.231574,342,554,-422,-64076,13912,19022
1721677827.240906,423,549,-428,-64741,15163,-814,3021,24871,-17132,84528,38264, 157850.100, 40.0102030,-105.2441694, 1588.599,1609.927, 4.041,5.320
1721677827.250202,525,493,-448,-61495,17517,-19207
1721677827.259498,622,432,-447,-55046,20282,-33119
1721677827.268794,689,358,-422,-47162,22890,-40224
1721677827.278090,697,279,-398,-39480,24955,-40285
1721677827.287386,647,223,-377,-34072,26188,-34633
1721677827.296682,581,194,-354,-32462,27151,-26399
1721677827.305978,517,173,-359,-34588,28393,-17054
1721677827.315277,428,215,-391,-39646,29916,-6930,,,,,, 157850.200, 40.0102036,-105.2441690, 1588.781,1610.109, 4.018,5.272
1721677827.324577,316,308,-404,-46576,31010,1085
1721677827.333877,242,410,-423,-53007,32095,5092
1721677827.343177,221,485,-437,-57111,33223,4830
1721677827.352477,210,523,-507,-58450,33407,-499
1721677827.361777,203,554,-544,-56560,32173,-10107
1721677827.371077,273,604,-573,-51992,30625,-23109
1721677827.380377,410,634,-600,-44310,30073,-37380
1721677827.389679,538,599,-625,-33311,29198,-52518,-347,22045,-18621,84529,38277, 157850.300, 40.0102051,-105.2441687, 1589.068,1610.396, 3.995,5.219
1721677827.398979,675,516,-655,-20265,26048,-68557
1721677827.408279,836,416,-673,-6772,21918,-80632
1721677827.417579,947,308,-684,5242,17368,-83405
1721677827.426879,1015,214,-713,13598,10771,-78628
1721677827.436179,1076,205,-732,17299,2450,-68802
1721677827.445479,1101,253,-706,17632,-5915,-52964
1721677827.454779,1058,289,-695,16748,-14403,-32848
1721677827.464051,979,320,-678,15444,-24115,-14552,48,23504,-17846,84534,38273
1721677827.473347,883,358,-641,13362,-33898,-1015
1721677827.482643,796,369,-605,10772,-42263,7551
1721677827.491939,721,368,-578,7674,-48545,10675
1721677827.501235,650,373,-543,3772,-52107,9922
1721677827.510531,606,371,-540,-735,-52745,7630
1721677827.519827,586,380,-505,-5573,-50593,4068
1721677827.529123,582,404,-442,-10963,-47338,-1330
1721677827.538422,598,403,-440,-16598,-43733,-9407,1922,22332,-18328,84532,38284, 157850.400, 40.0102060,-105.2441677, 1589.261,1610.589, 3.974,5.164
1721677827.547718,623,311,-452,-22330,-40784,-19172
1721677827.557014,658,251,-444,-28376,-38194,-26522
1721677827.566310,684,298,-417,-35840,-34467,-28613
1721677827.575606,674,305,-418,-44318,-30485,-27773
1721677827.584902,666,270,-408,-51047,-26959,-26180
1721677827.594198,678,208,-409,-56717,-22628,-22987
1721677827.603494,682,161,-464,-63358,-18962,-20178
1721677827.612824,663,231,-488,-71268,-16774,-19950,2661,17462,-20581,,, 157850.500, 40.0102075,-105.2441679, 1589.628,1610.956, 3.952,5.102
1721677827.622120,644,336,-479,-78653,-14954,-21097
1721677827.631416,653,384,-501,-82853,-13467,-23512
1721677827.640712,737,355,-583,-83370,-12845,-28525
1721677827.650008,820,296,-695,-81803,-13589,-33802
1721677827.659304,930,286,-837,-78583,-16328,-36015
1721677827.668600,958,408,-836,-74637,-25104,-36164
1721677827.677896,918,394,-819,-66587,-39174,-33933
1721677827.687195,749,262,-786,-50820,-55327,-31229,,,,84529,38279, 157850.600, 40.0102088,-105.2441676, 1589.851,1611.179, 3.932,5.046
1721677827.696491,692,215,-688,-35253,-69790,-29838
1721677827.705787,718,178,-560,-25943,-77429,-30643
1721677827.715083,738,188,-479,-21183,-81489,-34528
1721677827.724379,750,209,-402,-20632,-85619,-40032
1721677827.733675,749,211,-351,-22592,-89749,-45439
1721677827.742971,738,178,-335,-25550,-93179,-49412
1721677827.752267,727,95,-305,-30108,-95953,-51564
1721677827.761566,731,1,-281,-36837,-97720,-51039,8874,14923,-20654,84530,38293
1721677827.770862,761,-96,-341,-46690,-98420,-48563
1721677827.780158,783,30,-441,-59876,-99435,-46717
1721677827.789454,789,188,-409,-72861,-100617,-46227
1721677827.798750,764,275,-402,-79161,-100897,-48878
1721677827.808046,784,268,-374,-77700,-100643,-53813
1721677827.817342,858,204,-346,-73281,-99549,-59212
1721677827.826638,925,71,-320,-68267,-97152,-61495
1721677827.836029,967,6,-352,-65248,-94343,-60445,16223,9173,-20361,84535,38288, 157850.700, 40.0102102,-105.2441674, 1590.081,1611.409, 3.911,4.988
1721677827.845325,1009,28,-315,-64645,-90239,-51888
1721677827.854621,1018,27,-298,-64540,-84980,-38570
1721677827.863917,1035,33,-301,-63638,-80728,-26924
1721677827.873213,1049,74,-286,-62361,-77867,-19548
1721677827.882509,999,85,-262,-60103,-75828,-14123
1721677827.891805,919,22,-239,-56341,-74734,-11270
1721677827.901101,881,14,-231,-52683,-73317,-11612
1721677827.910401,903,61,-265,-51030,-70289,-14569,21221,4882,-19213,,, 157850.800, 40.0102112,-105.2441676, 1590.290,1611.618, 3.884,4.930
1721677827.919697,931,93,-320,-50032,-67122,-19014
1721677827.928993,970,91,-356,-46532,-65652,-24185
1721677827.938289,1032,126,-380,-39585,-65398,-25979
1721677827.947585,1122,22,-376,-30108,-65485,-22724
1721677827.956881,1187,-140,-328,-19101,-67717,-17072
1721677827.966177,1179,-265,-300,-11943,-72092,-9695
1721677827.975473,1117,-309,-280,-11961,-77237,-718
1721677827.984772,1026,-260,-230,-19110,-81865,8093,26177,2545,-17053,84529,38288, 157850.900, 40.0102124,-105.2441683, 1590.505,1611.833, 3.857,4.876
1721677827.994068,927,-152,-202,-29898,-84044,15461
1721677828.003364,829,-62,-219,-39952,-82215,20300
1721677828.012660,837,15,-257,-48238,-76930,20606
1721677828.021956,905,115,-317,-53681,-68907,17053
1721677828.031252,968,183,-320,-54416,-60227,14428
1721677828.040548,1056,161,-285,-49945,-52177,15006
1721677828.049844,1124,108,-254,-43295,-45247,17071
1721677828.059174,1180,63,-216,-38316,-40390,21280,,,,84527,38300
1721677828.068470,1193,52,-251,-36942,-38045,25917
1721677828.077766,1115,59,-252,-38298,-39122,27098
1721677828.087062,993,148,-407,-40425,-41213,23205
1721677828.096358,994,288,-468,-40792,-40600,16126
1721677828.105654,1004,359,-485,-34693,-34825,7831
1721677828.114950,1044,186,-520,-18462,-26154,568
1721677828.124246,1149,102,-498,989,-16862,-4095
1721677828.133545,1183,11,-487,15260,-9529,-3185,28314,872,-15924,,, 157851.000, 40.0102121,-105.2441682, 1590.541,1611.869, 3.834,4.827
1721677828.142841,1110,-185,-420,25454,-6283,1251
1721677828.152137,1088,-256,-402,29899,-5189,6903
1721677828.161433,1021,-263,-352,25647,-4629,10972
1721677828.170729,968,-168,-329,16625,-5592,11970
1721677828.180025,912,-52,-339,6624,-6108,9817
1721677828.189321,889,-46,-338,-533,-5968,4042
1721677828.198617,891,-42,-329,-4095,-5128,-3107
1721677828.207917,925,-32,-303,-6352,-3264,-9267,28430,885,-15985,84532,38304, 157851.100, 40.0102126,-105.2441685, 1590.609,1611.937, 3.814,4.781
1721677828.217213,967,-28,-310,-8408,-884,-13589
1721677828.226509,1016,-13,-312,-10237,1295,-14377
1721677828.235805,1039,9,-292,-11112,2992,-9704
1721677828.245101,1015,-5,-256,-10745,3473,-937
1721677828.254397,1013,15,-219,-10360,3211,9336
1721677828.263693,1026,20,-172,-11068,2791,19722
1721677828.272989,1000,16,-136,-12468,1715,28131
1721677828.282318,955,-6,-144,-15365,-1068,32261,28448,-134,-16070,84532,38304, 157851.200, 40.0102134,-105.2441680, 1590.614,1611.942, 3.796,4.737
1721677828.291614,933,13,-140,-20422,-5277,31167
1721677828.300910,910,65,-156,-27291,-9949,27212
1721677828.310206,875,117,-142,-32970,-13922,21542
1721677828.319502,890,104,-177,-35787,-15934,15102
1721677828.328798,916,83,-189,-35656,-15383,10193
1721677828.338094,953,79,-202,-34055,-12758,9791
1721677828.347390,984,51,-205,-31377,-9625,13396
1721677828.356690,1017,45,-200,-28455,-7963,17683,29504,-1837,-15435,84539,38311
1721677828.365986,1019,57,-180,-26110,-9030,20387
1721677828.375282,980,21,-203,-23826,-13064,20632
1721677828.384578,971,-14,-184,-21656,-19137,17228
1721677828.393874,969,-19,-146,-21192,-25550,9765
1721677828.403170,972,-74,-124,-21971,-30485,-202
1721677828.412466,955,-106,-146,-23213,-32130,-9940
1721677828.421762,992,-108,-188,-25060,-29602,-15164
1721677828.431061,1032,-93,-215,-25935,-22400,-15689,30029,-3369,-14953,,, 157851.300, 40.0102143,-105.2441676, 1590.658,1611.986, 3.778,4.697
1721677828.440357,1124,-110,-257,-24823,-12880,-12478
1721677828.449653,1146,-79,-283,-20973,-4183,-5907
1721677828.458949,1168,-88,-251,-16476,1093,3640
1721677828.468245,1144,-140,-243,-11305,2353,11900
1721677828.477541,1091,-180,-289,-8128,-53,16170
1721677828.486837,1046,-142,-417,-8531,-4507,16353
1721677828.496133,988,75,-512,-9983,-8260,16047
1721677828.505493,898,-105,-447,-1093,-14315,16975,,,,84533,38313, 157851.400, 40.0102149,-105.2441677, 1590.647,1611.975, 3.762,4.658
1721677828.514789,829,-173,-364,14009,-19828,12460
1721677828.524085,831,-175,-251,23477,-21954,8251
1721677828.533381,838,-144,-152,27379,-19977,5783
1721677828.542677,899,-122,-58,27642,-15707,4278
1721677828.551973,895,-126,6,24667,-10877,1933
1721677828.561269,932,-54,21,16643,-7447,-3430
1721677828.570565,943,62,-22,4787,-6712,-12347
1721677828.579865,975,171,-96,-6790,-10089,-24072,30828,-3265,-14422,84524,38315
1721677828.589161,1034,150,-97,-13755,-14674,-34685
1721677828.598457,1416,-291,-311,-14595,-17212,-38702
1721677828.607753,1364,113,-600,-7367,-13257,-20475
1721677828.617049,898,-235,19,14482,280,23318
1721677828.626345,779,-216,-102,16914,-4865,12372
1721677828.635641,974,-118,-188,7972,-7000,-3500
1721677828.644937,961,-56,-174,-1120,-5172,-12775
1721677828.654236,855,-16,-196,-6020,-6782,-19504,30957,-4467,-14202,84532,38315, 157851.500, 40.0102169,-105.2441680, 1590.826,1612.154, 3.738,4.606
1721677828.663532,842,13,-176,-8242,-5802,-22593
1721677828.672828,867,-62,-150,-8785,-1952,-24255
1721677828.682124,923,-38,-159,-8618,1575,-25664
1721677828.691420,973,15,-79,-9240,4795,-24798
1721677828.700716,1036,-110,-105,-7708,6081,-23722
1721677828.710012,1047,-104,-106,-4331,7708,-23100
1721677828.719308,1037,-20,-96,-6343,6326,-23188
1721677828.728638,1073,71,-75,-6772,3307,-22374,30694,-5328,-14221,,, 157851.600, 40.0102175,-105.2441681, 1590.809,1612.137, 3.714,4.556
1721677828.737934,1045,97,-113,-2887,236,-19942
1721677828.747230,998,138,-125,3413,-4769,-16704
1721677828.756526,979,111,-105,10798,-9057,-11472
1721677828.765822,964,70,-132,20160,-9739,-3719
1721677828.775118,978,79,-115,27939,-8330,3237
1721677828.784414,933,103,-152,33495,-6012,8680
1721677828.793710,1013,17,-129,39314,-3168,13361
1721677828.803009,1076,-51,-192,46288,-53,15933,31353,-2679,-14086,84527,38324, 157851.700, 40.0102174,-105.2441682, 1590.743,1612.071, 3.693,4.510
1721677828.812305,1155,-115,-224,49937,-1742,14280
1721677828.821601,1098,-150,-257,50217,-7998,10395
1721677828.830897,976,-126,-246,48449,-15234,6107
1721677828.840193,943,-115,-266,45492,-19137,-692
1721677828.849489,985,-64,-275,42902,-17745,-7385
1721677828.858785,994,23,-278,40644,-16013,-10702
1721677828.868081,909,38,-227,39883,-15663,-9730
1721677828.877381,984,16,-188,41318,-14788,-7272,,,,84534,38326
1721677828.886677,1008,19,-139,41755,-12522,-1400
1721677828.895973,1013,-23,-124,41143,-11288,4978
1721677828.905269,1076,-78,-148,40137,-11822,9581
1721677828.914565,1068,-56,-134,37450,-13755,12740
1721677828.923861,994,-32,-95,32752,-16415,13737
1721677828.933157,1004,-27,-135,28910,-16722,11121
1721677828.942453,1072,-68,-176,25305,-12837,5582
1721677828.951783,1065,6,-144,22252,-9704,1321,32159,-408,-13702,84537,38331, 157851.800, 40.0102174,-105.2441687, 1590.598,1611.926, 3.673,4.464
1721677828.961079,1033,59,-162,17597,-9818,-482
1721677828.970375,982,27,-165,15444,-10570,-359
1721677828.979671,958,21,-179,15470,-10080,1487
1721677828.988967,957,63,-127,14840,-8217,4882
1721677828.998263,983,30,-124,13773,-6432,8093
1721677829.007559,961,-14,-156,14097,-4332,8916
1721677829.016855,967,-52,-121,13309,-2485,6142
1721677829.026154,1063,-107,-196,11480,-464,1006,32440,231,-13360,84532,38337, 157851.900, 40.0102170,-105.2441689, 1590.396,1611.724, 3.655,4.423
1721677829.035450,1031,-32,-224,7805,1548,-4769
1721677829.044746,1018,30,-292,4970,621,-7210
1721677829.054042,906,216,-225,6650,-2030,-6790
1721677829.063338,1058,-106,-98,7123,-1768,-10815
1721677829.072634,998,-152,-161,14219,-2179,-13965
1721677829.081930,935,-26,-220,12338,-1392,-6755
1721677829.091226,899,-10,-237,7315,1242,1382
1721677829.100617,898,-18,-257,6055,2940,4270,32336,445,-13476,,, 157852.000, 40.0102172,-105.2441689, 1590.298,1611.626, 3.645,4.394
1721677829.109917,916,20,-228,7324,4033,4873
1721677829.119217,937,66,-202,8462,3631,2555
1721677829.128517,970,-60,-270,11620,1225,-1777
1721677829.137817,906,-15,-241,15365,-3457,-7788
1721677829.147117,921,-95,-195,16442,-9914,-10920
1721677829.156417,922,-3,-363,18235,-15864,-11402
1721677829.165717,1040,-39,-365,15873,-20677,-12828
1721677829.175019,1051,-118,-323,11682,-22908,-23835,33728,-1556,-12322,84533,38342
1721677829.184319,950,76,-178,2687,-24212,-32717
1721677829.193619,940,-4,-254,-10132,-27440,-38483
1721677829.202919,957,-210,-283,-12425,-25498,-41318
1721677829.212219,858,-56,-171,-19022,-25454,-30310
1721677829.221519,952,99,-29,-29391,-27265,-32157
1721677829.230819,1028,56,-107,-34098,-27055,-29217
1721677829.240119,674,-61,-77,-32707,-27895,-23555
1721677829.249390,918,-125,-72,-29995,-26338,-2555,,,,84526,38337, 157852.100, 40.0102175,-105.2441691, 1590.276,1611.604, 3.634,4.365
1721677829.258686,940,-86,-75,-32716,-22532,14061
1721677829.267982,1095,-26,0,-35997,-18305,21717
1721677829.277278,1112,-52,40,-37493,-12154,21201
1721677829.286574,1201,1,94,-35490,-5128,13020
1721677829.295870,1226,43,98,-31710,568,5503
1721677829.305166,1105,-20,81,-24535,-692,4243
1721677829.314462,1059,-43,25,-16633,-385,2686
1721677829.323761,1126,-65,34,-11322,6063,1233,34204,-3637,-11566,,, 157852.200, 40.0102171,-105.2441691, 1590.124,1611.452, 3.620,4.335
1721677829.333061,1193,-84,23,-8828,16686,-2442
1721677829.342361,1217,-120,2,-6632,26136,-8339
1721677829.351661,1169,-165,-46,-4567,32471,-14919
1721677829.360961,1116,-240,-71,-2826,35936,-19495
1721677829.370261,1030,-164,-126,-2633,38981,-22532
1721677829.379561,1054,-167,-124,-4138,43058,-26373
1721677829.388861,1078,-190,-143,-4270,48378,-32340
1721677829.398163,1036,-65,-162,-4418,52955,-37704,31188,-5694,-13500,84530,38349, 157852.300, 40.0102170,-105.2441692, 1589.964,1611.292, 3.602,4.297
1721677829.407459,876,-130,-173,-4593,54801,-43103
1721677829.416755,1443,-128,-103,-1023,54197,-45299
1721677829.426051,637,-309,-272,3343,51957,-35315
1721677829.435347,906,-66,52,7639,47748,-44144
1721677829.444643,945,-149,-371,13353,44948,-40557
1721677829.453939,1007,-233,-215,18708,41081,-23757
1721677829.463235,1002,-201,-244,21928,35175,-21447
1721677829.472534,983,-141,-186,22129,28542,-21508,28198,-6445,-15405,84528,38346
1721677829.481830,956,-138,-161,23529,24955,-27668
1721677829.491126,870,-202,-138,26872,24701,-38824
1721677829.500422,824,-248,-130,31632,24753,-46673
1721677829.509718,803,-264,-152,35875,24167,-48160
1721677829.519014,810,-285,-161,39139,21411,-43068
1721677829.528310,819,-300,-164,41493,16091,-32970
1721677829.537606,831,-307,-164,43007,9397,-21359
1721677829.546906,873,-285,-150,44162,1723,-8759,27917,-4425,-15661,84527,38355, 157852.400, 40.0102167,-105.2441691, 1589.842,1611.170, 3.579,4.260
1721677829.556202,935,-258,-140,44923,-4857,1776
1721677829.565498,983,-235,-139,45212,-8628,5827
1721677829.574794,1018,-226,-143,45150,-10789,3587
1721677829.584090,1021,-222,-138,44844,-12040,-2030
1721677829.593386,1018,-222,-137,44459,-11542,-10833
1721677829.602682,1022,-206,-148,44240,-10273,-19819
1721677829.611978,1008,-184,-175,44669,-9949,-25034
1721677829.621308,977,-188,-212,45684,-10614,-26504,28558,-1678,-15679,,, 157852.500, 40.0102174,-105.2441697, 1589.852,1611.180, 3.557,4.221
1721677829.630604,953,-203,-234,46900,-11358,-25358
1721677829.639900,939,-202,-247,47530,-11883,-21665
1721677829.649196,921,-187,-264,47522,-12583,-16310
1721677829.658492,924,-174,-264,47583,-14184,-8602
1721677829.667788,958,-136,-274,47740,-16039,603
1721677829.677084,1004,-115,-280,47548,-16092,7157
1721677829.686380,1029,-108,-272,47014,-14210,8855
1721677829.695679,1032,-98,-287,45745,-11559,7262,,,,84526,38360, 157852.600, 40.0102172,-105.2441693, 1589.699,1611.027, 3.538,4.185
1721677829.704975,1011,-108,-299,44065,-9442,5250
1721677829.714271,994,-120,-309,42228,-8409,5250
1721677829.723567,987,-128,-311,39148,-6773,6693
1721677829.732863,976,-119,-302,35105,-4865,8207
1721677829.742159,965,-114,-304,30564,-3378,9292
1721677829.751455,947,-132,-315,26032,-2258,9590
1721677829.760751,939,-138,-317,21307,-1619,9651
1721677829.770081,982,-103,-315,15829,-937,9695,28698,512,-15423,84529,38364
1721677829.779381,995,-85,-302,10229,-569,9738
1721677829.788681,995,-86,-309,5487,-1820,8671
1721677829.797981,976,-94,-308,1094,-3142,5013
1721677829.807281,954,-90,-302,-2966,-4515,1111
1721677829.816581,914,-93,-278,-6921,-6432,-814
1721677829.825881,877,-100,-245,-10753,-8742,-779
1721677829.835181,851,-97,-213,-14306,-10938,1583
1721677829.844483,846,-81,-176,-16878,-13388,7682,29351,109,-15106,84538,38369, 157852.700, 40.0102168,-105.2441696, 1589.613,1610.941, 3.524,4.151
1721677829.853783,870,-84,-165,-18130,-15899,15592
1721677829.863083,903,-109,-169,-17867,-17448,23590
1721677829.872383,938,-120,-174,-17010,-19583,31972
1721677829.881683,981,-108,-161,-16485,-22085,39156
1721677829.890983,1029,-92,-169,-16695,-23310,41720
1721677829.900283,1068,-96,-174,-17876,-21455,34221
1721677829.909583,1075,-140,-177,-19705,-17317,19075
1721677829.918854,1008,-162,-154,-21446,-14079,3412,30401,-903,-14306,,, 157852.800, 40.0102175,-105.2441698, 1589.664,1610.992, 3.517,4.136
1721677829.928150,947,-161,-166,-22627,-12714,-6825
1721677829.937446,922,-172,-189,-23222,-12837,-10570
1721677829.946742,911,-191,-207,-23135,-13860,-8269
1721677829.956038,913,-189,-219,-22741,-15147,-840
1721677829.965334,918,-147,-215,-22715,-15733,7621
1721677829.974630,987,-146,-256,-23467,-15007,12652
1721677829.983926,927,-247,-34,-25348,-13475,12433
1721677829.993225,1054,10,-269,-28761,-10002,9003,30993,-2093,-13885,84533,38373, 157852.900, 40.0102179,-105.2441699, 1589.700,1611.028, 3.503,4.107
1721677830.002525,1216,-19,-37,-34868,-1085,1697
1721677830.011825,1003,-208,-28,-28595,2826,-4165
1721677830.021125,821,-99,3,-20956,-5802,-3544
1721677830.030425,876,-89,-26,-18541,-12023,2178
1721677830.039725,886,-241,86,-13711,-10982,5355
1721677830.049025,892,-191,-343,-8592,-11165,8968
1721677830.058325,1168,-601,-522,-4541,-11865,14910
1721677830.067627,1039,-439,-245,105,-7105,21962,,,,84536,38377
1721677830.076923,692,181,-13,9232,-17912,82328
1721677830.086219,1099,-90,-245,4804,-18270,104991
1721677830.095515,1085,-180,-351,8435,980,79537
1721677830.104811,1021,-190,-437,14779,-2433,83632
1721677830.114107,1032,-129,-413,16853,-3544,66561
1721677830.123403,944,-115,-475,21578,-3448,26871
1721677830.132699,721,-135,-652,35158,-2459,5880
1721677830.141999,1061,-123,-860,56945,-639,11663,31481,1727,-13641,84528,38380, 157853.000, 40.0102182,-105.2441703, 1589.776,1611.104, 3.487,4.078
1721677830.151295,716,-348,366,79477,3237,18348
1721677830.160591,1050,-167,223,88734,-17509,-8610
1721677830.169887,849,-162,152,75609,-9363,-21342
1721677830.179183,948,5,-472,51293,-1558,-41187
1721677830.188479,1238,-451,-1683,42412,16318,-61697
1721677830.197775,1306,-629,-230,72660,40503,-68119
1721677830.207071,1067,608,855,53122,49367,-71733
1721677830.216370,1299,127,671,-21262,28490,-74900,30596,2343,-14355,,, 157853.100, 40.0102191,-105.2441703, 1589.841,1611.169, 3.473,4.050
1721677830.225666,968,-46,272,-4410,15592,-46944
1721677830.234962,1076,-124,435,2293,9038,-9162
1721677830.244258,1180,-53,33,-3430,6816,54005
1721677830.253554,1118,-74,-235,-5722,-420,105218
1721677830.262850,942,-111,-307,-2091,-11918,88996
1721677830.272146,745,-292,-314,-1251,-20204,28035
1721677830.281442,680,-297,-329,-1102,-25524,-18585
1721677830.290772,686,-224,-356,-1986,-28272,-34825,32104,2514,-13201,84529,38375, 157853.200, 40.0102207,-105.2441703, 1589.924,1611.253, 3.459,4.021
1721677830.300072,941,-50,-303,-2563,-30267,-32655
1721677830.309372,843,-82,-203,-910,-30844,-25507
1721677830.318672,918,-211,-72,3474,-30862,-29908
1721677830.327972,1075,-325,-86,8024,-27484,-43059
1721677830.337272,1163,-327,-201,9100,-24535,-47075
1721677830.346572,1218,-318,-194,8558,-22759,-29427
1721677830.355872,1231,-245,-161,8698,-21508,-11647
1721677830.365235,1091,-72,-122,7683,-19802,-2398,32800,4602,-12591,84529,38386
1721677830.374531,969,141,-2,6869,-16809,2800
1721677830.383827,948,108,-167,10255,-12128,16423
1721677830.393123,1025,-59,-276,17474,-7298,42700
1721677830.402419,1128,-284,-259,23372,-4069,68136
1721677830.411715,1208,-286,-265,28202,-910,83763
1721677830.421011,1042,-234,-236,29252,2345,82853
1721677830.430307,922,-306,-258,31544,3666,68573
1721677830.439606,955,-263,-501,36330,6746,57898,,,,84522,38391, 157853.300, 40.0102231,-105.2441720, 1590.068,1611.396, 3.446,3.993
1721677830.448906,1003,-143,-351,44442,15461,57601
1721677830.458206,951,45,-176,56622,27518,41370
1721677830.467506,1149,147,-109,37547,35043,-7473
1721677830.476806,1044,-269,-173,17317,37642,-21184
1721677830.486106,983,-216,-366,21805,35402,30082
1721677830.495406,971,170,-372,22243,35691,96591
1721677830.504706,947,316,-451,24133,38027,130943
1721677830.514008,933,240,-225,31369,41580,118090,30242,9539,-13653,,, 157853.400, 40.0102232,-105.2441717, 1590.071,1611.399, 3.435,3.976
1721677830.523308,925,224,-194,41720,45290,82897
1721677830.532608,922,151,-107,44984,42498,50583
1721677830.541908,898,164,-25,47373,42157,34676
1721677830.551208,978,147,-122,46192,42796,34868
1721677830.560508,945,65,-170,46769,43470,55501
1721677830.569808,979,133,-65,49315,45430,78785
1721677830.579108,997,199,-216,51477,50207,92601
1721677830.588379,1098,126,-118,56630,54547,98927,25317,16278,-14892,84527,38395, 157853.500, 40.0102234,-105.2441714, 1590.081,1611.409, 3.426,3.958
1721677830.597675,1193,85,-216,61233,57330,101071
1721677830.606971,1121,101,-302,60927,56218,97072
1721677830.616267,1088,116,-234,60883,55352,82145
1721677830.625563,1061,138,-374,58879,55317,59473
1721677830.634859,952,237,-344,53550,53943,50505
1721677830.644155,886,190,-285,49683,53182,59491
1721677830.653451,1063,171,-429,48344,53672,73360
1721677830.662751,1066,205,-482,48335,53445,86861,18768,22937,-15203,84530,38393
1721677830.672047,1027,242,-505,48397,51808,93082
1721677830.681343,799,328,-512,48318,50146,95033
1721677830.690639,742,451,-438,49569,48545,104256
1721677830.699935,873,506,-473,52317,50023,113575
1721677830.709231,1039,545,-460,55633,53383,113890
1721677830.718527,1081,522,-362,58389,55352,111273
1721677830.727823,988,578,-340,61425,54775,113268
1721677830.737152,832,669,-360,64978,54276,118055,9631,30590,-13177,84524,38402, 157853.600, 40.0102245,-105.2441712, 1590.188,1611.516, 3.413,3.940
1721677830.746448,639,676,-362,68565,55483,117048
1721677830.755744,598,584,-292,71733,55063,111028
1721677830.765040,736,496,-360,76073,55378,103390
1721677830.774336,731,538,-194,80098,55081,99802
1721677830.783632,789,563,-136,84604,52403,102768
1721677830.792928,882,523,-241,90047,53033,103477
1721677830.802224,751,459,-329,94220,54390,98525
1721677830.811524,653,564,-283,93433,55090,93817,-3100,36523,-8709,,, 157853.700, 40.0102246,-105.2441710, 1590.186,1611.514, 3.399,3.921
1721677830.820820,686,627,-277,88778,56673,98848
1721677830.830116,760,612,-260,85943,60410,111930
1721677830.839412,785,577,-262,84692,65467,128135
1721677830.848708,841,559,-280,80588,67698,150841
1721677830.858004,910,571,-415,75767,66841,176172
1721677830.867300,990,425,-332,72162,65520,194993
1721677830.876596,1001,95,-282,67944,61635,201197
1721677830.885895,795,148,-397,60962,56918,204023,,,,84528,38400, 157853.800, 40.0102247,-105.2441718, 1590.190,1611.518, 3.387,3.904
1721677830.895191,827,288,-536,55012,56262,214900
1721677830.904487,839,81,208,60734,70647,227578
1721677830.913783,663,89,315,65267,76527,244737
1721677830.923079,548,692,-406,45649,59526,235103
1721677830.932375,385,1282,-768,15269,36732,177065
1721677830.941671,228,1274,-460,6878,24351,110652
1721677830.950967,111,1066,-349,12688,17928,83833
1721677830.960297,137,864,-310,21368,15890,60025,-15698,36425,-5010,84525,38406
1721677830.969597,88,899,-256,25620,16887,28490
1721677830.978897,110,722,-38,23547,17701,9633
1721677830.988197,243,620,139,23267,19993,10447
1721677830.997497,306,700,42,22497,26145,39278
1721677831.006797,290,661,-244,21709,36977,68661
1721677831.016097,390,648,-358,21622,47328,75215
1721677831.025397,382,751,-381,19907,53252,69125
1721677831.034760,187,1074,-520,17325,54871,59508,-22338,36004,-1403,84528,38413, 157853.900, 40.0102255,-105.2441709, 1590.173,1611.501, 3.377,3.891
1721677831.044060,161,943,-333,15882,53926,52920
1721677831.053360,182,1006,-243,22050,54748,42717
1721677831.062660,239,964,-205,20519,54442,33416
1721677831.071960,297,880,-236,18297,54783,18445
1721677831.081260,330,722,-290,17833,55413,5407
1721677831.090560,351,699,-334,18332,55553,6440
1721677831.099860,356,907,-466,18830,52535,17526
1721677831.109253,306,1093,-482,19697,48553,24832,-27075,36157,3149,,, 157854.000, 40.0102256,-105.2441705, 1590.170,1611.498, 3.369,3.879
1721677831.118553,241,1071,-356,21840,44222,21560
1721677831.127853,235,998,-329,23197,39943,19328
1721677831.137153,260,920,-354,23433,37808,21306
1721677831.146453,217,940,-410,24807,38640,17788
1721677831.155753,187,819,-411,26268,41002,9117
1721677831.165053,25,809,-383,26102,40810,11471
1721677831.174353,-88,732,-345,23275,37703,33565
1721677831.183533,-91,709,-315,21700,37126,71776,-36804,29217,7464,84533,38415, 157854.100, 40.0102264,-105.2441703, 1590.258,1611.586, 3.360,3.865
1721677831.192833,-65,788,-289,19285,37861,119288
1721677831.202133,-35,989,-278,16730,39200,161455
1721677831.211433,-30,1173,-312,14447,41195,186716
1721677831.220733,-96,1232,-393,12959,41273,196008
1721677831.230033,-94,1140,-359,11839,35603,190207
1721677831.239333,-198,1030,-211,10089,26118,167011
1721677831.248633,-280,846,-182,6082,14857,127102
1721677831.257904,-360,795,-196,1339,10701,82215,,,,84524,38413
1721677831.267204,-347,730,-112,-8295,10736,56542
1721677831.276504,-360,691,-120,-16327,10710,57050
1721677831.285804,-313,665,-160,-17500,11882,71986
1721677831.295104,-278,650,-130,-18646,15767,89906
1721677831.304404,-184,709,-104,-21481,18392,110635
1721677831.313704,-64,766,-100,-24237,21603,132291
1721677831.323004,-71,908,-8,-26066,23747,143176
1721677831.332306,-171,1056,-11,-29793,22548,141111,-43011,20770,9582,,, 157854.200, 40.0102270,-105.2441699, 1590.296,1611.624, 3.352,3.851
1721677831.341602,-179,1230,-176,-32611,23388,119210
1721677831.350898,-421,1591,-58,-33643,26031,69116
1721677831.360194,-445,1584,-124,-33398,28376,-16065
1721677831.369490,-416,1265,-122,-28533,31211,-100459
1721677831.378786,-653,807,-268,-22706,34335,-168149
1721677831.388082,-550,735,-259,-20518,37012,-221559
1721677831.397378,-376,702,-162,-22531,41387,-253007
1721677831.406678,-367,697,-238,-23476,44406,-271530,-38616,30267,13031,84524,38422, 157854.300, 40.0102278,-105.2441699, 1590.319,1611.647, 3.342,3.837
1721677831.415974,-339,890,-289,-24150,47897,-283010
1721677831.425270,-117,1155,-187,-22898,50548,-283850
1721677831.434566,34,1196,-294,-17850,51117,-271767
1721677831.443862,185,970,-296,-9695,50522,-245027
1721677831.453158,112,642,-289,-1347,48720,-198835
1721677831.462454,-6,381,-202,3282,44187,-122894
1721677831.471750,101,608,-299,2512,41160,-31483
1721677831.481049,21,1156,-273,-2861,40643,48667,-38012,32611,17541,84530,38424
1721677831.490345,-372,1357,-192,-5512,38998,87920
1721677831.499641,-285,1153,-227,-1662,38158,69693
1721677831.508937,-133,988,-170,3124,40092,1058
1721677831.518233,-93,803,-209,5775,41133,-69948
1721677831.527529,-62,696,-234,7814,40897,-98630
1721677831.536825,-23,833,-211,7657,39663,-93188
1721677831.546121,-40,1000,-221,6720,37791,-79739
1721677831.555451,-24,994,-217,7079,35446,-73334,-36212,35614,22167,84530,38431, 157854.400, 40.0102284,-105.2441699, 1590.379,1611.707, 3.334,3.825
1721677831.564751,-78,988,-212,8322,32917,-73037
1721677831.574051,-74,936,-220,9503,30791,-67375
1721677831.583351,-27,857,-197,10754,29872,-55432
1721677831.592651,-10,878,-197,10404,29898,-48930
1721677831.601951,36,983,-135,9275,29662,-46305
1721677831.611251,-19,915,-73,8628,28980,-45553
1721677831.620551,-158,793,-76,8724,27387,-41738
1721677831.629883,-58,716,-62,8400,26810,-34432,,,,,, 157854.500, 40.0102295,-105.2441700, 1590.448,1611.776, 3.329,3.818
1721677831.639179,-69,915,-45,6432,27571,-30302
1721677831.648475,-54,996,-117,3334,28105,-28875
1721677831.657771,-75,1040,-115,1855,29268,-28648
1721677831.667067,-96,1199,-100,482,30003,-33259
1721677831.676363,-63,1086,-121,-358,30616,-43768
1721677831.685659,1,964,-45,315,30721,-55020
1721677831.694955,72,844,-71,560,29960,-58048
1721677831.704254,143,717,-141,307,27746,-52072,-35308,36907,26171,84530,38431, 157854.600, 40.0102307,-105.2441700, 1590.485,1611.813, 3.321,3.809
1721677831.713554,81,829,-195,-883,24482,-40207
1721677831.722854,-106,976,-240,-3692,20133,-25647
1721677831.732154,-259,1009,-255,-4961,17132,-15864
1721677831.741454,-155,1084,-209,-5355,17036,-11200
1721677831.750754,0,1151,-198,-5512,18777,-10212
1721677831.760054,2,1132,-188,-4392,19460,-14910
1721677831.769354,22,996,-163,-1907,18025,-28692
1721677831.778656,26,967,-142,385,15933,-43645,-34704,37530,29309,84523,38438
1721677831.787956,27,1035,-83,1068,14603,-50365
1721677831.797256,37,1009,-68,1593,13798,-49263
1721677831.806556,26,1103,-36,2249,13413,-38124
1721677831.815856,-69,1118,-81,3142,13186,-23564
1721677831.825156,-24,1133,-134,5224,13405,-17378
1721677831.834456,194,847,-143,7797,14087,-27685
1721677831.843756,91,975,-188,9380,12836,-51713
1721677831.853028,195,838,-126,9494,9983,-53437,-32958,38806,32379,84526,38442, 157854.700, 40.0102316,-105.2441699, 1590.521,1611.849, 3.313,3.797
1721677831.862324,198,826,-65,9065,6938,-58258
1721677831.871620,351,868,11,7018,3395,-59378
1721677831.880916,407,916,74,4034,-770,-55904
1721677831.890212,447,895,186,1024,-6327,-47294
1721677831.899508,360,862,267,-2677,-12950,-32104
1721677831.908804,271,918,249,-7752,-19102,-11760
1721677831.918100,101,923,248,-13623,-23135,-333
1721677831.927399,-410,937,188,-19460,-25795,-8392,-36279,35711,31921,,, 157854.800, 40.0102321,-105.2441696, 1590.552,1611.881, 3.303,3.782
1721677831.936695,-502,706,136,-24850,-25200,-15750
1721677831.945991,-188,484,151,-30563,-19093,9318
1721677831.955287,-242,426,181,-38570,-11900,59141
1721677831.964583,-311,694,192,-48545,-8173,115097
1721677831.973879,-572,926,67,-58065,-5653,158243
1721677831.983175,-622,1250,15,-63708,-2442,171692
1721677831.992471,-132,1656,-53,-66132,2773,166958
1721677832.001801,184,1688,-107,-63078,7262,169400,-41082,29925,32080,84530,38442, 157854.900, 40.0102326,-105.2441699, 1590.639,1611.967, 3.291,3.770
1721677832.011097,-140,1193,-144,-55186,6641,156660
1721677832.020393,-124,1099,-47,-48020,4077,109768
1721677832.029689,-351,950,14,-44712,4033,50286
1721677832.038985,-303,1008,20,-43968,6151,5608
1721677832.048281,-200,916,17,-43723,10080,-13082
1721677832.057577,-99,1123,23,-42875,13510,-202
1721677832.066873,-563,868,67,-41746,15470,42647
1721677832.076172,-364,1204,-63,-39173,17386,58747,,,,84520,38444
1721677832.085468,-490,963,17,-37345,22207,56507
1721677832.094764,-746,684,6,-34046,25401,31281
1721677832.104060,-908,497,25,-32681,29688,17806
1721677832.113356,-702,534,42,-35035,37406,23170
1721677832.122652,-299,919,54,-39733,45823,36767
1721677832.131948,-236,1534,-60,-43146,52832,60620
1721677832.141244,-337,1733,-39,-40670,53935,72843
1721677832.150544,-302,1524,-99,-31902,54127,69308,-43408,25494,35736,84524,38447, 157855.000, 40.0102331,-105.2441698, 1590.649,1611.977, 3.280,3.756
1721677832.159840,-369,1255,-133,-20982,53707,54328
1721677832.169136,-403,1085,-71,-13142,53550,25243
1721677832.178432,-204,1056,-106,-9353,54057,-2643
1721677832.187728,0,1339,-99,-8093,53847,-14324
1721677832.197024,-26,1314,-127,-7411,50732,-14805
1721677832.206320,-154,1008,-93,-3473,45106,-30844
1721677832.215616,-12,1025,-57,-175,38473,-56412
1721677832.224945,76,1048,-38,429,32506,-75557,-41113,27270,40466,,, 157855.100, 40.0102335,-105.2441699, 1590.615,1611.943, 3.269,3.744
1721677832.234245,-15,875,-40,692,25550,-84342
1721677832.243545,-10,679,-43,692,18375,-88130
1721677832.252845,14,472,-51,-1513,12048,-93293
1721677832.262145,137,752,5,-6431,6116,-93923
1721677832.271445,-40,1203,-56,-12468,201,-78820
1721677832.280745,-516,1490,-175,-13160,-5583,-43882
1721677832.290045,-831,1356,-48,-9152,-9547,-36225
1721677832.299347,-554,918,70,-1198,-6598,-73019,-38665,29693,42449,84521,38451, 157855.200, 40.0102338,-105.2441698, 1590.635,1611.963, 3.262,3.735
1721677832.308643,-343,612,52,4227,-928,-107494
1721677832.317939,-320,618,49,5110,2598,-95620
1721677832.327235,-484,778,164,1558,3981,-47364
1721677832.336531,-558,901,140,-4138,5477,-13152
1721677832.345827,-401,1016,77,-9135,9668,-12329
1721677832.355123,-384,1000,113,-12941,14761,-31973
1721677832.364419,-364,996,62,-15251,18655,-53585
1721677832.373719,-346,1065,122,-16590,21752,-57637,-37744,29229,45184,84525,38462
1721677832.383019,-340,844,72,-16843,24386,-44809
1721677832.392319,-88,806,57,-16572,27317,-27064
1721677832.401619,-98,876,46,-18742,28857,-8225
1721677832.410919,-211,848,101,-21087,28437,6912
1721677832.420219,-244,749,129,-23021,27772,26346
1721677832.429519,-257,857,86,-25751,27965,51161
1721677832.438819,-303,933,118,-29408,28052,66123
1721677832.448120,-245,890,148,-31080,28936,62615,,,,84529,38462, 157855.300, 40.0102337,-105.2441692, 1590.570,1611.898, 3.254,3.729
1721677832.457420,-227,864,156,-32401,29925,42595
1721677832.466720,-212,764,170,-33678,30817,11558
1721677832.476020,-340,492,131,-35218,31815,-15724
1721677832.485320,-716,175,120,-38106,32847,-22943
1721677832.494620,-602,183,-20,-44756,36811,-16407
1721677832.503920,-315,405,-79,-54985,43785,8583
1721677832.513220,204,1010,-206,-65380,48387,50251
1721677832.522492,84,1422,-293,-70595,48072,95576,-37951,27325,47637,,, 157855.400, 40.0102341,-105.2441687, 1590.516,1611.844, 3.245,3.721
1721677832.531788,-480,1147,-184,-67952,41046,118168
1721677832.541084,-717,856,-121,-61241,35551,107476
1721677832.550380,-690,691,-76,-57995,35428,69685
1721677832.559676,-568,483,-154,-59368,38998,22067
1721677832.568972,-548,598,-181,-63367,42008,6903
1721677832.578268,-411,1016,-211,-69720,42936,19556
1721677832.587564,-9,1462,-272,-74348,42603,39252
1721677832.596863,-41,1464,-217,-72870,40110,43041,-37902,25653,49548,84527,38462, 157855.500, 40.0102345,-105.2441685, 1590.433,1611.761, 3.235,3.713
1721677832.606159,-364,1030,-193,-67191,32856,25340
1721677832.615455,-546,764,-184,-61853,26022,5985
1721677832.624751,-355,831,-179,-61363,23432,-20073
1721677832.634047,-288,1020,-150,-63000,23441,-43952
1721677832.643343,-443,1310,-134,-63035,21612,-55467
1721677832.652639,-407,1419,-109,-59473,19678,-58932
1721677832.661935,-450,1175,-178,-52237,19460,-55423
1721677832.671265,-830,1189,-184,-45272,18086,-42307,-36212,27020,50769,84528,38464
1721677832.680561,-708,1056,-281,-40110,18436,-17562
1721677832.689857,-392,985,-319,-36321,21122,19241
1721677832.699153,-46,905,-285,-35857,21323,50688
1721677832.708449,10,891,-261,-36548,17850,50820
1721677832.717745,-300,1239,-241,-38858,10692,-1724
1721677832.727041,-360,1370,-245,-39200,4515,-83817
1721677832.736337,-396,1258,-134,-35411,1268,-142897
1721677832.745636,-426,985,-177,-29198,-779,-156993,-31414,32159,51275,84525,38469, 157855.600, 40.0102355,-105.2441679, 1590.374,1611.702, 3.226,3.706
1721677832.754932,-444,793,-151,-23450,-2477,-140132
1721677832.764228,-387,772,-106,-20868,-3264,-114258
1721677832.773524,-289,896,-110,-19792,-3745,-89889
1721677832.782820,-474,911,-94,-18558,-5049,-73404
1721677832.792116,-523,833,-107,-15960,-6729,-61128
1721677832.801412,-453,843,-111,-14105,-6300,-53629
1721677832.810708,-424,825,-35,-13930,-4760,-53673
1721677832.820038,-340,836,-123,-13256,-3920,-49534,,,,,, 157855.700, 40.0102358,-105.2441672, 1590.317,1611.645, 3.217,3.700
1721677832.829338,-268,865,-113,-12538,-2914,-45824
1721677832.838638,-393,869,-90,-11690,-2809,-49149
1721677832.847938,-405,899,-68,-10622,-3955,-44337
1721677832.857238,-317,875,-147,-9511,-4463,-34992
1721677832.866538,-305,775,-84,-8688,-5198,-29497
1721677832.875838,-367,708,30,-6938,-7193,-23310
1721677832.885138,-447,723,-35,-5792,-8602,-18270
1721677832.894440,-271,845,-21,-4865,-7980,-18192,-29284,33477,52117,84531,38469, 157855.800, 40.0102362,-105.2441666, 1590.271,1611.599, 3.210,3.695
1721677832.903740,-34,1080,-137,-3263,-5425,-18795
1721677832.913040,-307,1001,-129,-638,-4673,-22934
1721677832.922340,-245,922,-44,3623,-5329,-31737
1721677832.931640,-439,908,-210,5898,-4393,-40005
1721677832.940940,-296,922,-174,5058,-3955,-38877
1721677832.950240,-128,1002,-116,2424,-3325,-28814
1721677832.959540,-101,955,-142,88,-4104,-33110
1721677832.968811,-48,739,-251,-402,-6519,-48738,-26776,34613,53430,84526,38478
1721677832.978111,-61,793,-208,-770,-9958,-67393
1721677832.987411,-88,792,-188,-2257,-14097,-80623
1721677832.996711,-44,817,-166,-2423,-17877,-77560
1721677833.006011,18,886,-170,-2117,-20957,-59439
1721677833.015311,-68,917,-144,-1986,-24115,-50462
1721677833.024611,-195,954,-98,-1680,-27685,-52780
1721677833.033911,-196,998,-63,-1898,-30118,-54522
1721677833.043213,-272,1009,-47,-2012,-30678,-52658,-24401,36242,53662,84527,38480, 157855.900, 40.0102366,-105.2441658, 1590.173,1611.501, 3.202,3.690
1721677833.052513,-424,1053,-18,-2152,-30100,-48388
1721677833.061813,-462,1025,18,-472,-27782,-43540
1721677833.071113,-467,846,57,3623,-23345,-43234
1721677833.080413,-414,750,58,7613,-17780,-36252
1721677833.089713,-352,837,66,9310,-12285,-13335
1721677833.099013,-430,892,107,9809,-7473,14402
1721677833.108313,-322,965,48,10255,-3255,26783
1721677833.117585,-191,1065,-35,9582,1242,24473,-23364,35583,55474,,, 157856.000, 40.0102375,-105.2441650, 1590.260,1611.588, 3.197,3.688
1721677833.126881,-133,1071,-136,9573,3325,7726
1721677833.136177,-138,1125,-160,10947,3018,-10632
1721677833.145473,9,1082,-184,13134,857,-31360
1721677833.154769,67,986,-226,15812,-2337,-48992
1721677833.164065,-56,984,-205,19110,-7167,-50252
1721677833.173361,-48,976,-178,22575,-12784,-34650
1721677833.182657,13,986,-148,25752,-17772,-17229
1721677833.191956,-46,979,-102,28709,-22182,-18139,-20947,35894,57214,84530,38489, 157856.100, 40.0102376,-105.2441645, 1590.247,1611.575, 3.190,3.685
1721677833.201252,-123,1004,-38,31229,-26399,-39069
1721677833.210548,-253,834,13,32472,-29654,-61968
1721677833.219844,-295,827,77,32122,-31177,-72923
1721677833.229140,-319,735,136,29470,-30599,-76222
1721677833.238436,-338,661,172,25454,-28490,-76187
1721677833.247732,-376,759,192,20720,-25778,-71575
1721677833.257028,-337,852,97,15987,-23162,-57794
1721677833.266358,-321,849,68,12093,-21245,-30617,,,,84528,38484
1721677833.275654,-326,912,82,7342,-20519,-3124
1721677833.284950,-277,942,103,2363,-20502,12740
1721677833.294246,-177,1052,71,-1461,-20379,20667
1721677833.303542,-108,1012,2,-4173,-20458,12722
1721677833.312838,-19,935,-12,-5495,-21307,-13274
1721677833.322134,68,715,-2,-6177,-22838,-29593
1721677833.331430,-90,1077,-132,-7323,-24815,-28079
1721677833.340729,-92,986,-111,-8111,-27983,-16958,-21044,35968,57427,84521,38491, 157856.200, 40.0102373,-105.2441638, 1590.135,1611.463, 3.183,3.681
1721677833.350025,-83,1056,-121,-4016,-30809,-2669
1721677833.359321,-160,1145,-68,-2178,-32480,796
1721677833.368617,-210,1107,-10,1654,-34318,-1470
1721677833.377913,-164,1031,42,6213,-34729,-13887
1721677833.387209,-170,1033,76,8855,-33942,-30197
1721677833.396505,-199,1005,136,8847,-32953,-37162
1721677833.405801,-213,908,170,6563,-32017,-37153
1721677833.415100,-178,820,201,3124,-30433,-32192,-20550,36114,57580,,, 157856.300, 40.0102371,-105.2441632, 1590.002,1611.330, 3.177,3.678
1721677833.424396,-141,701,252,-78,-28622,-22838
1721677833.433692,-340,867,212,-3395,-26977,-15164
1721677833.442988,-324,1028,231,-6291,-24150,-10317
1721677833.452284,-258,838,162,-6536,-19487,-4375
1721677833.461580,-251,890,136,-6536,-14928,-13362
1721677833.470876,-247,870,45,-7945,-12137,-28062
1721677833.480172,-142,957,2,-9178,-10045,-32480
1721677833.489533,-102,1043,-26,-10202,-10483,-21700,-19555,36358,58099,84529,38500, 157856.400, 40.0102375,-105.2441624, 1589.923,1611.251, 3.171,3.675
1721677833.498829,-24,1158,-42,-9642,-12119,-10544
1721677833.508125,-54,1265,-67,-6160,-14079,-8540
1721677833.517421,4,1240,-64,482,-16004,-14490
1721677833.526717,0,1286,-73,8260,-17658,-16713
1721677833.536013,-8,1065,-35,13974,-19644,-18218
1721677833.545309,-2,938,-36,16932,-21709,-23354
1721677833.554605,-33,866,-11,15549,-23914,-24737
1721677833.563904,33,758,-11,12058,-26679,-25419,-18438,36578,58801,84525,38502
1721677833.573200,-61,780,51,9144,-29339,-25043
1721677833.582496,-196,773,121,7604,-31334,-28088
1721677833.591792,-280,747,153,7280,-31579,-39874
1721677833.601088,-195,754,192,6528,-28805,-43829
1721677833.610384,-193,956,204,3649,-24597,-33102
1721677833.619680,-234,946,194,-892,-20922,-24509
1721677833.628976,-152,901,190,-3990,-17535,-16809
1721677833.638275,-133,982,90,-6833,-14630,-12732,,,,84525,38505, 157856.500, 40.0102384,-105.2441622, 1589.882,1611.210, 3.165,3.672
1721677833.647571,-201,1101,56,-6702,-12487,-14980
1721677833.656867,-212,1119,-1,-3115,-10570,-14674
1721677833.666163,-208,1185,-60,2162,-8698,-10299
1721677833.675459,-16,1139,-129,7735,-6922,-9529
1721677833.684755,115,1109,-136,11165,-6904,-8575
1721677833.694051,162,1098,-60,10745,-10290,-4760
1721677833.703347,152,1063,65,8873,-16503,-4760
1721677833.712677,133,850,127,8313,-22339,-11699,-17675,36120,59503,,, 157856.600, 40.0102393,-105.2441618, 1589.765,1611.093, 3.159,3.667
1721677833.721973,9,732,143,7875,-25139,-18804
1721677833.731269,-98,708,124,5697,-25953,-28762
1721677833.740565,-93,721,124,1322,-25332,-38894
1721677833.749861,-91,839,184,-7437,-24579,-43497
1721677833.759157,-125,893,217,-18900,-25752,-53349
1721677833.768453,-100,917,198,-29986,-27834,-80054
1721677833.777749,-22,969,115,-39672,-29435,-106199
1721677833.787049,100,1108,-66,-47171,-31255,-117600,-13867,39239,58105,84520,38507, 157856.700, 40.0102400,-105.2441617, 1589.846,1611.174, 3.153,3.663
1721677833.796345,208,1297,-191,-51143,-34397,-108745
1721677833.805641,226,1376,-266,-50207,-39673,-93433
1721677833.814937,216,1172,-291,-43487,-45728,-108343
1721677833.824233,212,1135,-246,-34335,-51520,-118064
1721677833.833529,184,1096,-155,-26731,-56578,-116997
1721677833.842825,145,977,-22,-20510,-60568,-134680
1721677833.852121,63,961,58,-17605,-62257,-158428
1721677833.861420,75,972,160,-20212,-60769,-184888,-2197,43457,55975,84525,38502
1721677833.870716,72,839,166,-24473,-56184,-228927
1721677833.880012,58,910,153,-30940,-52343,-276982
1721677833.889308,81,954,160,-35866,-46804,-281602
1721677833.898604,209,1070,105,-38132,-41064,-270769
1721677833.907900,360,975,21,-37292,-35867,-245455
1721677833.917196,405,787,-18,-34545,-31999,-244003
1721677833.926492,447,678,-49,-34483,-29383,-240275
1721677833.935822,506,685,-66,-38220,-27239,-214909,10711,44207,53375,84522,38511, 157856.800, 40.0102408,-105.2441615, 1589.888,1611.216, 3.147,3.658
1721677833.945122,566,732,-39,-43435,-25524,-180058
1721677833.954422,618,790,-44,-48238,-24369,-159977
1721677833.963722,735,952,-74,-51362,-24185,-158997
1721677833.973022,740,871,-36,-51388,-25069,-159268
1721677833.982322,694,711,-17,-47110,-26443,-156240
1721677833.991622,686,768,-48,-42148,-27449,-149092
1721677834.000922,755,843,-88,-37791,-28823,-123585
1721677834.010346,791,941,-79,-33985,-29628,-88113,,,,,, 157856.900, 40.0102416,-105.2441614, 1589.914,1611.242, 3.141,3.653
1721677834.019642,768,953,-98,-30695,-30398,-76020
1721677834.028938,730,919,-93,-27956,-30442,-97204
1721677834.038234,672,885,-86,-25480,-30100,-123795
1721677834.047530,627,935,-86,-23117,-28788,-140499
1721677834.056826,544,878,-79,-19250,-27799,-138662
1721677834.066122,480,686,-49,-13580,-27038,-110172
1721677834.075418,512,607,-28,-7971,-25708,-58590
1721677834.084595,625,581,-32,-3946,-23118,-1392,17382,42797,52343,84522,38520, 157857.000, 40.0102414,-105.2441611, 1589.953,1611.281, 3.136,3.648
1721677834.093895,702,614,-38,-2056,-20598,40468
1721677834.103195,716,674,-49,-1793,-18927,61958
1721677834.112495,695,681,-42,-2065,-17360,63402
1721677834.121795,673,729,-57,-2703,-15365,55492
1721677834.131095,714,808,-99,-3683,-12837,51266
1721677834.140395,755,732,-106,-3963,-10798,48107
1721677834.149695,745,639,-98,-3342,-9914,31911
1721677834.158997,722,499,-100,-2931,-10212,15513,15454,43768,52093,84524,38520
1721677834.168297,712,461,-79,-3228,-11130,22688
1721677834.177597,717,504,-78,-4803,-12338,60515
1721677834.186897,758,508,-80,-6702,-13712,99085
1721677834.196197,731,638,-73,-8426,-15208,128485
1721677834.205497,743,804,-87,-9826,-16660,152792
