;Title, http://www.gcdataconcepts.com, LSM6DSM, BMP384, GPS
;Version, 2585, Build date, Feb  9 2024,  SN:CCDC2023B942042
;Start_time, 2024-07-22, 19:42:40.133
;Uptime, 5,sec,  Vbat, 4072, mv, EOL, 3500, mv
;Deadband, 0, counts
;DeadbandTimeout, 0.000,sec
;BMP384, SI, 0.100,sec, Units, Pa, mdegC
;Alt Trigger disabled
;LSM6DSM, SR,104,Hz, Units, mG, mdps, fullscale gyro 250dps, accel 4g
;Magnetometer, SR,10,Hz, Units, nT, Temperature, 30,degC
;CAM_M8 Gps, SR,10,Hz
;Gps Sats, TOW, 157376000, ver, 1, numSat, 21
;, gnssId, svId, cno, elev, azmith, prRes, flags,inUse
;, GPS, 008, 00, 10, 323, 0, 0x00001911
;, GPS, 010, 00, 45, 278, 0, 0x00001911
;, GPS, 013, 00, 06, 037, 0, 0x00001911
;, GPS, 015, 00, 33, 050, 0, 0x00001911
;, GPS, 016, 00, 03, 266, 0, 0x00001911
;, GPS, 018, 00, 63, 108, 0, 0x00001911
;, GPS, 023, 00, 70, 338, 0, 0x00001911
;, GPS, 024, 00, 26, 106, 0, 0x00001911
;Time, Ax, Ay, Az, Gx, Gy, Gz, Mx, My, Mz, P, T, TOW, Lat,Lon, Height(m), MSL(m), hdop(m), vdop(m)
1721677360.195463,-2,-4,1011,-1828,-3702,-1383,-22515,17675,72375,84540,32605, 157376.160, 40.0102918,-105.2442254, 1590.863,1612.191, 247531.424,175031.136
1721677360.204713,6,-6,1008,-1487,0,-1960
1721677360.213963,5,-16,1012,-1286,332,-2162
1721677360.223213,3,-8,1019,-1260,341,-2468
1721677360.232463,5,-6,1021,-1688,166,-2555
1721677360.241713,-1,-9,1020,-1855,35,-2704
1721677360.250963,-7,-5,1016,-1767,0,-2853
1721677360.260213,0,-6,1009,-1662,61,-2897
1721677360.649109,2,-6,1010,-1513,262,-3220,-22308,17730,72564,84541,32598, 157381.600, 40.0102918,-105.2442254, 1590.863,1612.191, 5034.184,3559.706
1721677360.658359,4,-10,1013,-1111,280,-3465
1721677360.667609,7,-15,1016,-691,140,-3448
1721677360.676859,7,-12,1016,-481,-18,-3220
1721677360.686109,13,-2,1014,-595,-368,-2757
1721677360.695359,20,1,1011,-743,-884,-2547
1721677360.704609,22,3,1009,-752,-1313,-2337
1721677360.713859,25,0,1008,-455,-1680,-2013
1721677360.723114,27,3,1011,-70,-2118,-1479,,,,84547,32609
1721677360.732364,21,-7,1017,272,-2739,-1068
1721677360.741614,16,-10,1027,727,-3439,-919
1721677360.750864,2,-9,1032,954,-4288,-604
1721677360.760114,15,-18,1028,1313,-4962,-193
1721677360.769364,0,-13,1025,1855,-5119,-210
1721677360.778614,-19,-10,1027,2065,-5207,-683
1721677360.787864,-5,-10,1029,2205,-5172,-1182
1721677360.797119,2,-20,1029,2188,-4944,-1890,-22399,17871,72479,84547,32607, 157381.701, 40.0102918,-105.2442254, 1590.863,1612.191, 5034.193,3559.712
1721677360.806369,2,-16,1030,2004,-4892,-2538
1721677360.815619,11,-17,1028,1803,-4787,-2669
1721677360.824869,-22,-22,1031,1628,-4813,-2442
1721677360.834119,17,-14,1031,1322,-4935,-1698
1721677360.843369,34,0,1031,928,-4620,-280
1721677360.852619,2,-8,1039,867,-4865,-280
1721677360.861869,8,-13,1042,1068,-5058,-9
1721677360.871124,-6,-24,1041,1112,-4769,647,-22583,17657,72454,,, 157381.799, 40.0107364,-105.2442097, 1590.863,1612.191, 744.760,707.107
1721677360.880374,0,-24,1037,1173,-4603,770
1721677360.889624,19,-27,1033,1147,-4305,437
1721677360.898874,11,-18,1033,1085,-4244,-263
1721677360.908124,2,-7,1039,718,-4664,-875
1721677360.917374,-3,-11,1045,350,-5119,-1330
1721677360.926624,0,-13,1044,490,-5110,-1287
1721677360.935874,0,-8,1043,718,-4690,-1015
1721677360.945130,-6,-5,1037,1024,-4349,-989,-22705,17321,72235,84551,32605
1721677360.954380,-31,-18,1026,1444,-4130,-1199
1721677360.963630,-76,-65,1008,1575,-3859,-1540
1721677360.972880,-56,-50,993,1427,-3290,-2669
1721677360.982130,-21,-32,986,858,-2153,-3999
1721677360.991380,-3,-48,997,665,-1339,-4367
1721677361.000630,-5,-39,1013,464,-972,-3719
1721677361.009880,5,-29,1028,237,-919,-1803
1721677361.019135,14,-17,1036,-17,-727,-368,-22656,17272,72314,84539,32620, 157381.899, 40.0071240,-105.2445732, 1312.587,1333.915, 773.127,586.044
1721677361.028385,13,-20,1032,-218,-630,148
1721677361.037635,20,-9,1033,-113,-578,0
1721677361.046885,24,-10,1029,202,-473,-123
1721677361.056135,14,-18,1021,735,-490,-368
1721677361.065385,7,-11,1016,884,-762,-552
1721677361.074635,9,-8,1014,613,-1225,-727
1721677361.083885,8,-10,1013,473,-1759,-832
1721677361.093140,13,-25,1016,744,-2258,-727,-22741,17364,72338,84554,32620, 157382.000, 40.0072282,-105.2445939, 1326.136,1347.464, 593.825,467.958
1721677361.102390,20,-10,1026,1120,-2503,-700
1721677361.111640,15,-41,1034,1427,-2783,-884
1721677361.120890,-7,-52,1033,1829,-3203,-2118
1721677361.130140,3,-46,1030,1532,-3553,-1689
1721677361.139390,0,-32,1029,797,-3632,-1077
1721677361.148640,-14,-28,1029,499,-4052,-770
1721677361.157890,-21,-30,1019,438,-4104,-875
1721677361.167297,-26,-27,1011,447,-3570,-1304,,,,,, 157382.100, 40.0072813,-105.2446074, 1334.869,1356.197, 532.518,413.742
1721677361.176547,-17,-19,1012,657,-3054,-1234
1721677361.185797,-14,-20,1017,1050,-2625,-447
1721677361.195047,-15,-22,1025,1435,-2319,542
1721677361.204297,-16,-27,1027,1672,-2170,1540
1721677361.213547,-21,-34,1023,1890,-2118,2240
1721677361.222797,-13,-34,1017,1873,-2039,2345
1721677361.232047,-10,-45,1013,1707,-1995,2100
1721677361.241181,-18,-44,1011,1637,-1952,1426,-22814,17095,72369,84547,32616
1721677361.250431,-21,-42,1013,1409,-1908,708
1721677361.259681,-10,-40,1015,1199,-1698,113
1721677361.268931,-8,-37,1013,910,-1497,-263
1721677361.278181,-3,-41,1012,823,-1470,-412
1721677361.287431,0,-42,1011,622,-1462,-552
1721677361.296681,9,-43,1011,429,-1462,-412
1721677361.305931,9,-51,1013,254,-1453,-228
1721677361.315186,-5,-50,1022,228,-1654,-175,-22802,17028,72375,84535,32618, 157382.200, 40.0101435,-105.2443291, 1585.571,1606.899, 123.269,119.243
1721677361.324436,-10,-44,1026,0,-1812,-420
1721677361.333686,-3,-37,1023,-201,-1637,-648
1721677361.342936,-11,-46,1024,-227,-1400,-1007
1721677361.352186,-19,-33,1023,-236,-1427,-937
1721677361.361436,-11,-34,1024,-560,-1453,-648
1721677361.370686,-6,-42,1025,-743,-1365,-499
1721677361.379936,-8,-43,1028,-691,-1532,-412
1721677361.389191,-1,-39,1025,-805,-1593,-88,-22814,16754,72387,,, 157382.300, 40.0102591,-105.2443111, 1599.769,1621.097, 94.492,95.913
1721677361.398441,-11,-37,1022,-1085,-1619,17
1721677361.407691,-13,-34,1019,-1190,-1680,122
1721677361.416941,-14,-32,1011,-1172,-1567,341
1721677361.426191,-1,-25,1002,-1111,-1295,428
1721677361.435441,-6,-35,997,-918,-1085,245
1721677361.444691,-14,-40,1008,-708,-1190,17
1721677361.453941,-13,-35,1019,-700,-1365,0
1721677361.463196,-10,-41,1031,-822,-1479,70,-22833,17083,72460,84548,32620, 157382.400, 40.0102555,-105.2443176, 1598.193,1619.521, 77.913,81.461
1721677361.472446,-12,-46,1041,-866,-1558,-167
1721677361.481696,-12,-43,1046,-962,-1637,-245
1721677361.490946,-8,-40,1042,-1111,-1514,-35
1721677361.500196,-4,-45,1037,-1163,-1357,70
1721677361.509446,0,-48,1032,-1128,-1269,201
1721677361.518696,5,-46,1034,-1181,-1190,393
1721677361.527946,2,-43,1036,-1268,-1252,17
1721677361.537201,2,-47,1034,-1522,-1357,-394,-22814,17211,72357,84552,32622
1721677361.546451,0,-44,1026,-1601,-1330,-604
1721677361.555701,-7,-40,1023,-1872,-1348,-455
1721677361.564951,-6,-28,1026,-2196,-1435,-263
1721677361.574201,-5,-28,1030,-2493,-1619,-202
1721677361.583451,-9,-24,1028,-2607,-1698,-420
1721677361.592701,-13,-27,1022,-2590,-1593,-727
1721677361.601951,-11,-30,1014,-2502,-1514,-998
1721677361.611206,-10,-34,1011,-2257,-1313,-1147,,,,84543,32627, 157382.500, 40.0102538,-105.2443211, 1598.514,1619.842, 67.349,71.893
1721677361.620456,-16,-41,1013,-2091,-1208,-1339
1721677361.629706,-18,-33,1024,-2152,-1199,-1514
1721677361.638956,-18,-30,1032,-2187,-1287,-1287
1721677361.648206,-17,-31,1034,-2170,-1234,-753
1721677361.657456,-11,-28,1027,-2126,-1007,-210
1721677361.666706,-6,-32,1015,-2065,-849,96
1721677361.675956,-5,-34,1009,-2021,-928,402
1721677361.685211,-5,-30,1009,-1960,-1120,735,-22821,17156,72351,,, 157382.600, 40.0102307,-105.2443435, 1596.874,1618.202, 61.431,68.702
1721677361.694461,-10,-29,1007,-1925,-1365,910
1721677361.703711,-5,-31,1011,-1627,-1540,761
1721677361.712961,0,-30,1018,-1198,-1610,472
1721677361.722211,-3,-26,1028,-927,-1803,113
1721677361.731461,-3,-27,1037,-630,-2249,-202
1721677361.740711,7,-30,1037,-376,-2538,-385
1721677361.749961,3,-26,1035,-262,-2722,-315
1721677361.759216,-5,-29,1037,-280,-3037,245,-22894,16870,72283,84545,32627, 157382.700, 40.0102060,-105.2443614, 1594.898,1616.226, 57.052,66.180
1721677361.768466,-8,-29,1035,-437,-3448,1032
1721677361.777716,-12,-27,1032,-551,-3728,1863
1721677361.786966,-21,-33,1030,-630,-3789,2178
1721677361.796216,-22,-34,1026,-280,-3632,2117
1721677361.805466,-11,-40,1020,9,-3019,1741
1721677361.814716,-13,-40,1017,18,-2372,1023
1721677361.823966,-16,-35,1018,97,-2013,113
1721677361.833252,-12,-29,1020,184,-1602,-359,-22973,16760,72161,84537,32627
1721677361.842502,-18,-32,1024,254,-1357,-508
1721677361.851752,-13,-35,1029,237,-1120,-438
1721677361.861002,-23,-38,1035,132,-963,-307
1721677361.870252,-40,-29,1042,-8,-832,-184
1721677361.879502,-26,-41,1040,-341,-692,87
1721677361.888752,-20,-43,1034,-551,-298,262
1721677361.898002,-20,-44,1030,-638,-27,463
1721677361.907257,-10,-41,1020,-577,218,560,-22869,16857,72454,84548,32631, 157382.800, 40.0101840,-105.2443558, 1590.276,1611.604, 53.298,63.829
1721677361.916507,2,-40,1009,-647,551,385
1721677361.925757,5,-39,1005,-560,656,8
1721677361.935007,1,-36,1006,-472,463,-298
1721677361.944257,-5,-41,1009,-236,218,-438
1721677361.953507,-12,-47,1014,-105,26,-552
1721677361.962757,-12,-43,1020,-105,-324,-525
1721677361.972007,-13,-44,1026,-385,-832,-123
1721677361.981262,-4,-40,1031,-603,-1322,385,,,,,, 157382.900, 40.0101502,-105.2443513, 1585.630,1606.958, 50.138,61.791
1721677361.990512,-5,-42,1033,-805,-1680,673
1721677361.999762,-4,-37,1033,-717,-1890,341
1721677362.009012,1,-29,1028,-630,-2188,105
1721677362.018262,2,-28,1020,-595,-2302,-35
1721677362.027512,1,-31,1009,-350,-2372,26
1721677362.036762,-1,-38,1005,27,-2380,183
1721677362.046012,-9,-48,1006,237,-2372,122
1721677362.055267,-9,-50,1014,289,-2450,-123,-22961,16821,72271,84547,32629, 157383.000, 40.0101242,-105.2443548, 1583.767,1605.094, 47.277,59.141
1721677362.064517,-8,-48,1022,149,-2494,-237
1721677362.073767,-14,-54,1025,-35,-2459,-359
1721677362.083017,-26,-46,1029,-420,-2468,-534
1721677362.092267,-29,-40,1030,-927,-2380,-718
1721677362.101517,-19,-36,1027,-1321,-2153,-814
1721677362.110767,-17,-37,1026,-1575,-1742,-805
1721677362.120017,-15,-40,1018,-1505,-1278,-919
1721677362.129273,-14,-40,1010,-1260,-875,-1182,-23004,16809,72363,84554,32640
1721677362.138523,-16,-43,1007,-1242,-587,-1628
1721677362.147773,-21,-44,1007,-1198,-350,-2153
1721677362.157023,-19,-52,1011,-1093,-114,-2468
1721677362.166273,-16,-53,1021,-1015,105,-2538
1721677362.175523,-15,-48,1033,-1312,183,-2249
1721677362.184773,-7,-42,1037,-1776,157,-1698
1721677362.194023,-4,-37,1040,-2082,43,-1199
1721677362.203278,-4,-39,1040,-2170,-228,-613,-22979,16876,72369,84544,32631, 157383.100, 40.0101344,-105.2443700, 1588.762,1610.089, 42.191,50.687
1721677362.212528,-10,-31,1038,-2257,-412,-219
1721677362.221778,-11,-25,1035,-2100,-639,43
1721677362.231028,-9,-21,1029,-1925,-744,43
1721677362.240278,-7,-19,1025,-1531,-849,-307
1721677362.249528,-11,-23,1026,-1076,-945,-525
1721677362.258778,-27,-24,1028,-525,-1138,-884
1721677362.268028,-18,-20,1025,-201,-1304,-1444
1721677362.277252,-14,-23,1023,18,-1190,-1873,-22937,16784,72253,,, 157383.200, 40.0101338,-105.2443806, 1590.954,1612.282, 38.376,44.573
1721677362.286502,-11,-26,1025,368,-1243,-1969
1721677362.295752,-14,-30,1030,770,-1357,-1777
1721677362.305002,-18,-33,1034,945,-1523,-1540
1721677362.314252,-18,-33,1035,1007,-1654,-1190
1721677362.323502,-8,-33,1034,1129,-1645,-797
1721677362.332752,-1,-33,1032,1357,-1584,-560
1721677362.342002,-11,-25,1029,1584,-1593,-587
1721677362.351257,-9,-25,1024,1934,-1619,-762,-22967,16766,72387,84543,32635, 157383.300, 40.0101337,-105.2443868, 1592.775,1614.103, 35.371,39.930
1721677362.360507,-14,-31,1022,2722,-1505,-1155
1721677362.369757,-23,-39,1019,3588,-1409,-1374
1721677362.379007,-23,-45,1014,4235,-1225,-1339
1721677362.388257,-13,-45,1009,4524,-1120,-1182
1721677362.397507,-12,-55,1007,4769,-1164,-665
1721677362.406757,-20,-53,1008,4900,-1348,-70
1721677362.416007,-16,-53,1013,4787,-1558,280
1721677362.425263,-3,-59,1016,4804,-1558,210,,,,84537,32638
1721677362.434513,4,-65,1025,4638,-1584,-324
1721677362.443763,1,-57,1032,4314,-1917,-788
1721677362.453013,0,-57,1037,3570,-2319,-972
1721677362.462263,-4,-54,1039,3255,-2748,-1024
1721677362.471513,-9,-54,1039,2975,-2862,-814
1721677362.480763,-5,-64,1037,2643,-2757,-499
1721677362.490013,-6,-71,1037,2424,-2678,-630
1721677362.499329,-23,-65,1036,1654,-2940,-893,-23089,16510,72387,84549,32635, 157383.400, 40.0101375,-105.2443892, 1594.459,1615.787, 32.853,36.172
1721677362.508579,-25,-68,1032,525,-3308,-1059
1721677362.517829,-20,-71,1023,-402,-3308,-980
1721677362.527079,-22,-64,1017,-910,-3045,-832
1721677362.536329,-31,-64,1013,-1338,-2765,-937
1721677362.545579,-36,-65,1008,-1461,-2293,-1313
1721677362.554829,-35,-65,1004,-1400,-1777,-1829
1721677362.564079,-35,-60,999,-1400,-1322,-2293
1721677362.573334,-26,-67,1001,-1487,-954,-2582,-23156,16571,72338,,, 157383.500, 40.0101400,-105.2443871, 1595.438,1616.766, 30.708,33.046
1721677362.582584,-18,-70,1008,-1321,-770,-2678
1721677362.591834,-23,-61,1016,-1356,-814,-2354
1721677362.601084,-25,-47,1022,-1732,-1033,-1908
1721677362.610334,-23,-48,1029,-2082,-1190,-1750
1721677362.619584,-13,-51,1030,-2021,-1199,-1584
1721677362.628834,-2,-39,1027,-1828,-954,-1287
1721677362.638084,-5,-35,1015,-1758,-779,-1024
1721677362.647339,-17,-43,1006,-1513,-762,-998,-23065,16375,72265,84549,32635, 157383.600, 40.0101382,-105.2443830, 1594.374,1615.702, 28.787,30.304
1721677362.656589,-25,-50,1005,-1181,-779,-735
1721677362.665839,-31,-55,1007,-980,-753,-447
1721677362.675089,-34,-55,1011,-1015,-727,-385
1721677362.684339,-25,-55,1015,-1111,-657,-342
1721677362.693589,-24,-57,1018,-1233,-368,-464
1721677362.702839,-20,-52,1022,-1338,-53,-648
1721677362.712089,-10,-50,1022,-1452,157,-560
1721677362.721344,-13,-47,1021,-1557,350,-438,-23065,16345,72222,84543,32646
1721677362.730594,-14,-53,1021,-1548,350,-298
1721677362.739844,-13,-50,1020,-1522,245,-62
1721677362.749094,-19,-46,1018,-1548,-9,113
1721677362.758344,-23,-46,1018,-1400,-359,96
1721677362.767594,-18,-53,1017,-1242,-622,-123
1721677362.776844,-24,-49,1018,-945,-700,-298
1721677362.786094,-18,-45,1016,-743,-1024,-245
1721677362.795349,-14,-49,1017,-700,-1295,-342,-23187,16601,72192,84542,32642, 157383.700, 40.0101494,-105.2443821, 1593.785,1615.113, 27.638,29.475
1721677362.804599,-13,-54,1021,-586,-1532,-543
1721677362.813849,-10,-61,1022,-376,-1812,-525
1721677362.823099,-14,-61,1022,-288,-2179,-473
1721677362.832349,-17,-61,1026,-358,-2625,-630
1721677362.841599,-19,-66,1026,-437,-3089,-884
1721677362.850849,-18,-71,1020,-411,-3395,-1138
1721677362.860099,-23,-74,1012,-481,-3518,-1339
1721677362.869354,-31,-66,1003,-761,-3588,-1663,,,,,, 157383.800, 40.0101711,-105.2443748, 1594.170,1615.498, 26.228,27.756
1721677362.878604,-34,-74,1007,-1041,-3614,-2048
1721677362.887854,-34,-66,1011,-1163,-3343,-2617
1721677362.897104,-34,-55,1017,-1391,-3115,-3080
1721677362.906354,-26,-46,1024,-1758,-2800,-3212
1721677362.915604,-20,-44,1034,-1837,-2459,-3133
1721677362.924854,-16,-37,1042,-1793,-2293,-2634
1721677362.934104,-10,-37,1047,-1645,-1952,-1917
1721677362.943360,-9,-38,1053,-1382,-1707,-1225,-23297,16778,72045,84546,32642
1721677362.952610,-11,-45,1053,-1137,-1637,-788
1721677362.961860,-5,-49,1046,-953,-1427,-517
1721677362.971110,-8,-49,1039,-875,-1164,-377
1721677362.980360,-22,-49,1041,-945,-1182,-219
1721677362.989610,-19,-48,1041,-1015,-1234,-27
1721677362.998860,-18,-46,1036,-962,-937,-140
1721677363.008110,-33,-39,1034,-735,-727,-543
1721677363.017365,-35,-31,1034,-560,-569,-613,-23309,16705,71984,84546,32651, 157383.900, 40.0101876,-105.2443701, 1594.347,1615.675, 24.759,26.091
1721677363.026615,-30,-33,1032,-297,-140,-455
1721677363.035865,-27,-33,1027,210,245,-403
1721677363.045115,-33,-38,1024,753,621,-552
1721677363.054365,-36,-38,1024,1313,796,-534
1721677363.063615,-33,-46,1021,1698,1076,-569
1721677363.072865,-35,-44,1018,2048,1347,-692
1721677363.082115,-37,-46,1017,2223,1417,-692
1721677363.091370,-35,-46,1016,2310,1452,-403,-23168,16363,72186,84542,32651, 157384.000, 40.0102017,-105.2443636, 1594.752,1616.080, 23.366,24.547
1721677363.100620,-32,-49,1020,2372,1478,105
1721677363.109870,-32,-55,1022,2503,1478,472
1721677363.119120,-24,-52,1024,2678,1540,813
1721677363.128370,-24,-55,1024,2713,1601,1120
1721677363.137620,-20,-62,1023,2704,1662,1058
1721677363.146870,-13,-69,1022,2888,1618,1006
1721677363.156120,-12,-64,1019,2792,1548,1137
1721677363.165527,-13,-62,1018,2477,1321,1347,-23126,16137,72332,,, 157384.100, 40.0102100,-105.2443560, 1594.498,1615.826, 22.087,23.120
1721677363.174777,-18,-65,1017,2389,1137,1286
1721677363.184027,-17,-66,1019,2407,988,1111
1721677363.193277,-15,-72,1018,2398,927,787
1721677363.202527,-14,-70,1016,2363,796,463
1721677363.211777,-15,-69,1018,2179,507,43
1721677363.221027,-20,-71,1022,1934,227,-324
1721677363.230277,-19,-74,1025,1777,113,-368
1721677363.239472,-15,-71,1026,1637,210,35,,,,84547,32659
1721677363.248722,-19,-72,1025,1365,183,420
1721677363.257972,-19,-74,1021,963,70,630
1721677363.267222,-18,-77,1019,455,-132,717
1721677363.276472,-16,-80,1016,132,-385,875
1721677363.285722,-18,-74,1018,-306,-648,778
1721677363.294972,-22,-64,1020,-673,-1007,875
1721677363.304222,-24,-62,1021,-866,-1190,1146
1721677363.313477,-21,-64,1021,-796,-1260,1330,-23126,16204,72418,84545,32657, 157384.200, 40.0102163,-105.2443515, 1594.505,1615.833, 20.911,21.785
1721677363.322727,-26,-65,1021,-568,-1173,1408
1721677363.331977,-23,-68,1023,-332,-1120,1260
1721677363.341227,-13,-75,1023,-17,-1059,1076
1721677363.350477,-17,-72,1020,9,-1164,787
1721677363.359727,-23,-69,1020,-306,-1514,446
1721677363.368977,-22,-78,1021,-551,-1847,210
1721677363.378227,-27,-72,1027,-551,-2074,96
1721677363.387482,-32,-74,1031,-700,-2074,166,-23199,16058,72277,,, 157384.300, 40.0102270,-105.2443403, 1594.986,1616.314, 19.776,20.500
1721677363.396732,-28,-69,1028,-752,-1969,175
1721677363.405982,-20,-72,1026,-708,-1803,253
1721677363.415232,-21,-72,1023,-568,-1505,201
1721677363.424482,-20,-74,1024,-498,-1322,61
1721677363.433732,-8,-75,1025,-341,-1050,52
1721677363.442982,-6,-74,1025,-175,-980,78
1721677363.452232,-16,-66,1029,-315,-1112,105
1721677363.461487,-17,-63,1030,-612,-1313,253,-23297,16101,72241,84543,32657, 157384.400, 40.0102381,-105.2443301, 1595.598,1616.926, 18.646,19.145
1721677363.470737,-16,-68,1028,-700,-1453,612
1721677363.479987,-22,-71,1028,-621,-1322,822
1721677363.489237,-23,-64,1021,-778,-1190,980
1721677363.498487,-20,-69,1017,-988,-1059,927
1721677363.507737,-25,-69,1015,-1111,-1007,630
1721677363.516987,-27,-67,1009,-1251,-814,367
1721677363.526237,-34,-66,1004,-1295,-578,-53
1721677363.535492,-38,-65,1004,-1181,-307,-342,-23278,15887,72174,84543,32659
1721677363.544742,-39,-68,1008,-971,-18,-473
1721677363.553992,-34,-72,1015,-831,350,-595
1721677363.563242,-27,-74,1020,-866,647,-455
1721677363.572492,-22,-72,1022,-936,717,-62
1721677363.581742,-16,-69,1022,-1330,577,420
1721677363.590992,-20,-71,1022,-1793,455,647
1721677363.600242,-19,-69,1021,-2003,253,883
1721677363.609497,-16,-63,1016,-1968,218,1137,-23211,16015,72229,84546,32662, 157384.500, 40.0102426,-105.2443197, 1595.394,1616.722, 17.589,17.908
1721677363.618747,-23,-66,1011,-1863,297,1041
1721677363.627997,-24,-68,1007,-1601,315,656
1721677363.637247,-18,-68,1006,-1233,341,297
1721677363.646497,-19,-67,1011,-936,428,-158
1721677363.655747,-20,-70,1018,-682,437,-490
1721677363.664997,-19,-71,1026,-428,428,-569
1721677363.674247,-22,-60,1034,-367,236,-438
1721677363.683502,-22,-59,1038,-673,0,-237,,,,,, 157384.600, 40.0102423,-105.2443088, 1594.670,1615.998, 16.617,16.768
1721677363.692752,-19,-63,1038,-682,-158,-9
1721677363.702002,-21,-63,1034,-533,-307,323
1721677363.711252,-19,-64,1025,-437,-438,595
1721677363.720502,-25,-66,1018,-411,-403,717
1721677363.729752,-29,-70,1015,-218,-324,787
1721677363.739002,-26,-66,1017,35,-245,848
1721677363.748252,-20,-68,1020,167,-193,892
1721677363.757507,-19,-69,1024,237,-105,673,-23223,15795,72198,84540,32662, 157384.700, 40.0102407,-105.2442972, 1593.643,1614.971, 15.700,15.689
1721677363.766757,-15,-69,1027,245,-158,490
1721677363.776007,-15,-66,1026,149,-385,385
1721677363.785257,-22,-68,1026,-183,-613,428
1721677363.794507,-26,-67,1026,-411,-867,735
1721677363.803757,-30,-65,1025,-201,-1024,936
1721677363.813007,-25,-67,1022,-332,-788,927
1721677363.822257,-20,-67,1016,-218,-342,717
1721677363.831513,-19,-67,1011,123,0,341,-23217,15808,72210,84545,32659
1721677363.840763,-16,-71,1008,385,192,-167
1721677363.850013,-10,-79,1010,613,428,-534
1721677363.859263,-5,-88,1015,797,463,-700
1721677363.868513,-10,-86,1018,735,245,-814
1721677363.877763,-11,-81,1025,263,-210,-604
1721677363.887013,-12,-81,1029,-280,-718,-105
1721677363.896263,-17,-80,1032,-665,-1138,341
1721677363.905518,-21,-77,1029,-1067,-1409,761,-23278,15795,72198,84538,32664, 157384.800, 40.0102363,-105.2442882, 1592.534,1613.862, 14.874,14.736
1721677363.914768,-19,-78,1023,-1470,-1444,1155
1721677363.924018,-25,-75,1016,-1566,-1365,1198
1721677363.933268,-27,-81,1011,-1653,-1339,840
1721677363.942518,-25,-70,1008,-1662,-1155,411
1721677363.951768,-26,-69,1011,-1522,-893,-79
1721677363.961018,-29,-70,1016,-1190,-595,-630
1721677363.970268,-28,-68,1016,-971,-368,-980
1721677363.979523,-21,-67,1017,-1032,-202,-1085,-23278,15747,72290,,, 157384.900, 40.0102336,-105.2442797, 1591.727,1613.055, 14.106,13.816
1721677363.988773,-22,-72,1019,-1146,-175,-1173
1721677363.998023,-28,-72,1023,-1146,-368,-1059
1721677364.007273,-31,-73,1026,-1146,-499,-1033
1721677364.016523,-29,-71,1028,-1225,-525,-1007
1721677364.025773,-31,-69,1027,-1268,-447,-805
1721677364.035023,-27,-71,1025,-1172,-385,-604
1721677364.044273,-24,-72,1024,-1111,-254,-359
1721677364.053528,-25,-70,1021,-1023,-88,-158,-23229,15856,72290,84544,32670, 157385.000, 40.0102373,-105.2442723, 1591.702,1613.030, 13.395,12.957
1721677364.062778,-20,-75,1020,-761,70,96
1721677364.072028,-17,-79,1022,-393,280,183
1721677364.081278,-17,-87,1025,-332,350,-210
1721677364.090528,-13,-84,1029,-411,218,-683
1721677364.099778,-15,-77,1035,-735,26,-700
1721677364.109028,-20,-70,1040,-1286,-324,-832
1721677364.118278,-30,-64,1045,-1706,-700,-980
1721677364.127533,-24,-66,1041,-1776,-963,-1059,,,,84547,32677
1721677364.136783,-33,-67,1032,-1627,-718,-1059
1721677364.146033,-27,-69,1022,-1505,-368,-980
1721677364.155283,-25,-69,1017,-1225,201,-823
1721677364.164533,-23,-76,1015,-743,516,-735
1721677364.173783,-21,-82,1015,-201,796,-727
1721677364.183033,-20,-81,1017,175,962,-692
1721677364.192283,-27,-81,1019,272,927,-464
1721677364.201538,-24,-82,1019,228,665,-167,-23266,16058,72357,84543,32666, 157385.100, 40.0102426,-105.2442688, 1592.189,1613.517, 12.739,12.167
1721677364.210788,-17,-82,1022,62,446,192
1721677364.220038,-16,-79,1024,-52,280,376
1721677364.229288,-18,-77,1027,-280,-53,656
1721677364.238538,-23,-73,1027,-542,-438,840
1721677364.247788,-22,-75,1026,-743,-683,822
1721677364.257038,-19,-70,1022,-743,-683,708
1721677364.266288,-18,-76,1018,-586,-543,577
1721677364.275543,-18,-73,1017,-323,-350,166,-23211,15997,72387,,, 157385.200, 40.0102453,-105.2442648, 1592.266,1613.594, 12.138,11.446
1721677364.284793,-16,-77,1016,-245,-219,-9
1721677364.294043,-11,-79,1017,-78,-219,-97
1721677364.303293,-12,-79,1021,-297,-438,-27
1721677364.312543,-17,-76,1027,-743,-770,-35
1721677364.321793,-21,-71,1031,-1172,-1199,122
1721677364.331043,-20,-70,1032,-1347,-1470,166
1721677364.340293,-20,-69,1029,-1365,-1532,52
1721677364.349548,-17,-61,1024,-1163,-1435,70,-23345,16058,72277,84544,32673, 157385.300, 40.0102492,-105.2442619, 1592.587,1613.915, 11.593,10.801
1721677364.358798,-20,-60,1021,-840,-1339,166
1721677364.368048,-20,-61,1019,-463,-1225,157
1721677364.377298,-19,-59,1020,70,-1077,26
1721677364.386548,-19,-63,1023,587,-797,-140
1721677364.395798,-18,-72,1027,1024,-587,-385
1721677364.405048,-23,-75,1035,1225,-412,-569
1721677364.414298,-22,-76,1039,1234,-333,-560
1721677364.423554,-16,-75,1040,1042,-254,-429,-23315,15649,72210,84549,32677
1721677364.432804,-15,-72,1039,814,-237,-193
1721677364.442054,-16,-78,1034,525,-280,245
1721677364.451304,-21,-76,1029,403,-289,446
1721677364.460554,-25,-70,1024,429,-420,498
1721677364.469804,-30,-69,1021,324,-315,682
1721677364.479054,-28,-72,1016,438,-132,796
1721677364.488304,-25,-69,1014,674,61,743
1721677364.497559,-28,-75,1015,972,131,708,,,,84545,32679, 157385.400, 40.0102506,-105.2442600, 1592.813,1614.141, 11.117,10.247
1721677364.506809,-27,-83,1020,1348,306,507
1721677364.516059,-15,-96,1028,1715,533,350
1721677364.525309,-15,-93,1032,1812,551,350
1721677364.534559,-16,-77,1032,1287,140,612
1721677364.543809,-5,-74,1028,490,-499,1251
1721677364.553059,-16,-71,1023,70,-1112,2100
1721677364.562309,-28,-71,1018,-43,-1663,2826
1721677364.571564,-28,-70,1011,-17,-1742,3228,-23327,15515,72137,,, 157385.500, 40.0102521,-105.2442588, 1592.969,1614.297, 10.702,9.775
1721677364.580814,-22,-69,1008,228,-1619,3255
1721677364.590064,-21,-80,1008,657,-1453,2922
1721677364.599314,-21,-86,1013,1015,-1409,2843
1721677364.608564,-14,-79,1016,1138,-1330,2922
1721677364.617814,-18,-90,1022,1234,-1225,3080
1721677364.627064,-27,-83,1023,1190,-1295,3001
1721677364.636314,-24,-78,1019,727,-1470,2983
1721677364.645569,-20,-79,1016,315,-1505,2826,-23437,15301,72204,84538,32675, 157385.600, 40.0102518,-105.2442568, 1592.917,1614.245, 10.330,9.363
1721677364.654819,-24,-69,1016,158,-1558,2625
1721677364.664069,-30,-72,1017,-113,-1549,2353
1721677364.673319,-32,-78,1017,-192,-1505,2012
1721677364.682569,-36,-81,1013,27,-1304,1723
1721677364.691819,-34,-92,1008,184,-945,1181
1721677364.701069,-43,-93,1004,237,-455,647
1721677364.710319,-49,-92,1005,62,-219,481
1721677364.719574,-38,-100,1010,-315,-44,551,-23468,15197,72155,84543,32677
1721677364.728824,-34,-98,1016,-568,350,630
1721677364.738074,-27,-104,1022,-857,726,437
1721677364.747324,-18,-96,1026,-953,1102,70
1721677364.756574,-14,-102,1025,-1137,1470,-324
1721677364.765824,-13,-99,1023,-1303,1627,-692
1721677364.775074,-6,-95,1024,-1277,1697,-753
1721677364.784324,-15,-91,1024,-1382,1522,-832
1721677364.793579,-21,-86,1024,-1846,988,-858,-23431,15399,72222,84544,32690, 157385.700, 40.0102512,-105.2442550, 1592.865,1614.193, 9.998,9.001
1721677364.802829,-13,-77,1027,-2406,367,-683
1721677364.812079,-14,-73,1026,-2686,-70,-482
1721677364.821329,-21,-75,1025,-2756,-604,-639
1721677364.830579,-20,-78,1022,-2686,-989,-727
1721677364.839829,-10,-82,1016,-2528,-1007,-674
1721677364.849079,-10,-82,1010,-2152,-1042,-578
1721677364.858329,-15,-84,1009,-1802,-1120,-770
1721677364.867584,-18,-86,1012,-1583,-1077,-1077,-23504,15478,72149,,, 157385.800, 40.0102490,-105.2442532, 1592.642,1613.970, 9.700,8.688
1721677364.876834,-21,-89,1019,-1426,-1243,-1532
1721677364.886084,-32,-85,1026,-1260,-1278,-1777
1721677364.895334,-37,-87,1030,-1583,-1470,-1733
1721677364.904584,-38,-80,1035,-2056,-1558,-1085
1721677364.913834,-22,-74,1038,-2257,-1514,-613
1721677364.923084,-20,-74,1034,-2222,-1269,-368
1721677364.932334,-26,-75,1031,-2161,-1155,-937
1721677364.941589,-24,-75,1025,-2021,-1068,-1094,,,,84541,32686
1721677364.950839,-15,-73,1018,-1793,-945,-1138
1721677364.960089,-24,-81,1013,-1496,-692,-1584
1721677364.969339,-31,-86,1014,-1198,-525,-2197
1721677364.978589,-30,-87,1023,-770,-368,-2398
1721677364.987839,-32,-82,1031,-726,-245,-2625
1721677364.997089,-33,-78,1038,-1076,-105,-2617
1721677365.006339,-35,-72,1037,-1400,-62,-2083
1721677365.015595,-33,-75,1033,-1583,26,-1365,-23474,15606,72161,84545,32688, 157385.900, 40.0102485,-105.2442515, 1592.417,1613.745, 9.430,8.407
1721677365.024845,-35,-73,1024,-1715,175,-753
1721677365.034095,-31,-82,1013,-1767,428,-464
1721677365.043345,-32,-85,1005,-1645,647,-727
1721677365.052595,-32,-92,1003,-1557,848,-1269
1721677365.061845,-32,-86,1003,-1566,1067,-1742
1721677365.071095,-31,-87,1007,-1627,1321,-1715
1721677365.080345,-11,-73,1014,-1610,1470,-1820
1721677365.089600,-10,-69,1019,-1820,1470,-2074,-23388,15911,72296,,, 157386.000, 40.0102470,-105.2442499, 1592.066,1613.394, 9.181,8.153
1721677365.098850,-20,-70,1022,-1820,1330,-2669
1721677365.108100,-27,-69,1025,-1618,1207,-3002
1721677365.117350,-21,-70,1025,-1365,1190,-2940
1721677365.126600,-22,-77,1030,-1172,1330,-2739
1721677365.135850,-30,-74,1035,-997,1233,-2389
1721677365.145100,-23,-75,1038,-1041,1111,-1689
1721677365.154350,-12,-72,1031,-1058,1128,-1313
1721677365.163605,-8,-72,1020,-1102,1207,-1383,-23284,15997,72247,84541,32697, 157386.100, 40.0102437,-105.2442470, 1591.451,1612.779, 8.941,7.897
1721677365.172855,-7,-74,1012,-1023,980,-1785
1721677365.182105,-2,-70,1007,-840,630,-1750
1721677365.191355,-11,-69,1007,-883,315,-1593
1721677365.200605,-27,-70,1012,-805,-149,-1628
1721677365.209855,-30,-73,1018,-498,-534,-1680
1721677365.219105,-37,-68,1026,-236,-665,-1663
1721677365.228355,-33,-66,1031,-122,-683,-1322
1721677365.237641,-31,-72,1032,123,-543,-1007,-23260,16009,72387,84545,32699
1721677365.246891,-33,-85,1032,438,-245,-858
1721677365.256141,-29,-83,1029,753,78,-639
1721677365.265391,-21,-71,1026,683,323,-263
1721677365.274641,-10,-77,1023,552,507,-167
1721677365.283891,-13,-90,1029,753,551,-132
1721677365.293141,-11,-76,1034,805,411,113
1721677365.302391,-10,-81,1033,517,210,236
1721677365.311646,-19,-78,1030,429,-97,8,-23248,15704,72222,84548,32692, 157386.200, 40.0102408,-105.2442439, 1590.875,1612.203, 8.739,7.674
1721677365.320896,-19,-70,1029,263,-482,43
1721677365.330146,-23,-73,1026,132,-683,227
1721677365.339396,-27,-80,1025,385,-779,26
1721677365.348646,-28,-76,1023,718,-727,-464
1721677365.357896,-28,-71,1023,788,-648,-692
1721677365.367146,-27,-72,1023,928,-613,-788
1721677365.376396,-27,-74,1023,1182,-630,-648
1721677365.385742,-23,-76,1021,1392,-648,-298,,,,,, 157386.300, 40.0102378,-105.2442412, 1590.258,1611.586, 8.558,7.480
1721677365.394992,-23,-84,1022,1453,-622,52
1721677365.404242,-27,-86,1022,1610,-753,367
1721677365.413492,-22,-82,1019,1479,-980,700
1721677365.422742,-19,-85,1013,1295,-1173,630
1721677365.431992,-23,-87,1007,1304,-1269,358
1721677365.441242,-29,-86,1003,1287,-1479,122
1721677365.450492,-31,-81,1002,1182,-1663,-18
1721677365.459656,-35,-73,1006,998,-1750,0,-23327,15679,72174,84541,32710, 157386.400, 40.0102362,-105.2442399, 1589.926,1611.254, 8.400,7.309
1721677365.468906,-38,-79,1017,884,-1812,192
1721677365.478156,-37,-85,1026,1007,-1680,43
1721677365.487406,-35,-83,1026,1024,-1339,0
1721677365.496656,-20,-86,1018,849,-937,-44
1721677365.505906,-23,-90,1011,867,-464,-307
1721677365.515156,-26,-93,1010,840,-263,-447
1721677365.524406,-23,-101,1011,945,-79,-289
1721677365.533661,-36,-95,1016,945,35,-53,-23345,15405,72198,84540,32703
1721677365.542911,-35,-89,1022,639,-210,533
1721677365.552161,-33,-90,1024,280,-280,1181
1721677365.561411,-41,-90,1025,88,-114,1330
1721677365.570661,-40,-92,1022,70,201,1146
1721677365.579911,-41,-89,1012,97,726,927
1721677365.589161,-39,-90,1009,-87,1286,787
1721677365.598411,-29,-90,1005,-122,1785,778
1721677365.607666,-25,-85,1005,-122,2091,1015,-23248,15502,72259,84537,32705, 157386.500, 40.0102354,-105.2442387, 1589.670,1610.998, 8.257,7.162
1721677365.616916,-29,-87,1009,-280,2073,1321
1721677365.626166,-30,-83,1016,-612,1890,1653
1721677365.635416,-23,-83,1020,-1006,1452,2091
1721677365.644666,-19,-94,1022,-1417,1050,2038
1721677365.653916,-13,-89,1020,-1645,700,1723
1721677365.663166,-10,-86,1020,-1898,341,1365
1721677365.672416,-9,-89,1020,-1986,-97,717
1721677365.681671,-10,-80,1018,-1968,-385,-9,-23345,15521,72265,,, 157386.600, 40.0102357,-105.2442381, 1589.576,1610.904, 8.118,7.024
1721677365.690921,-15,-75,1023,-1811,-595,-648
1721677365.700171,-14,-82,1026,-1347,-867,-1147
1721677365.709421,-21,-85,1027,-822,-1199,-1470
1721677365.718671,-24,-72,1031,-866,-1715,-1392
1721677365.727921,-14,-78,1030,-1032,-2372,-980
1721677365.737171,-13,-83,1028,-927,-2844,-604
1721677365.746421,-23,-79,1024,-831,-3194,0
1721677365.755829,-31,-81,1020,-988,-3500,463,,,,84540,32714, 157386.700, 40.0102364,-105.2442379, 1589.518,1610.846, 7.980,6.896
1721677365.765079,-35,-79,1014,-883,-3535,560
1721677365.774329,-36,-82,1012,-568,-3299,472
1721677365.783579,-36,-84,1015,-105,-2853,43
1721677365.792829,-38,-92,1023,298,-2284,-289
1721677365.802079,-33,-102,1027,613,-1934,-674
1721677365.811329,-29,-93,1029,429,-1540,-937
1721677365.820579,-29,-89,1033,9,-1357,-937
1721677365.829682,-33,-88,1038,-411,-1322,-884,-23486,15521,72113,84551,32716
1721677365.838932,-42,-88,1042,-778,-1330,-910
1721677365.848182,-35,-88,1042,-1347,-1182,-797
1721677365.857432,-25,-77,1031,-1540,-902,-482
1721677365.866682,-28,-82,1022,-1592,-499,-315
1721677365.875932,-28,-85,1018,-1522,-272,-569
1721677365.885182,-33,-92,1016,-1356,-53,-718
1721677365.894432,-36,-97,1018,-1093,-79,-963
1721677365.903687,-29,-89,1018,-1120,-97,-1007,-23486,15594,72143,84540,32723, 157386.800, 40.0102379,-105.2442381, 1589.630,1610.958, 7.847,6.775
1721677365.912937,-31,-84,1022,-1575,-342,-753
1721677365.922187,-29,-84,1024,-1855,-665,-447
1721677365.931437,-44,-90,1025,-1855,-945,-228
1721677365.940687,-34,-77,1020,-1802,-1173,52
1721677365.949937,-32,-75,1013,-1811,-1050,586
1721677365.959187,-34,-78,1006,-1487,-1059,682
1721677365.968437,-33,-84,1002,-988,-1068,542
1721677365.977692,-37,-86,1001,-595,-1015,385,-23602,15777,72174,,, 157386.900, 40.0102395,-105.2442383, 1589.655,1610.983, 7.720,6.661
1721677365.986942,-37,-78,1006,-288,-1094,411
1721677365.996192,-32,-84,1012,-35,-1269,551
1721677366.005442,-33,-78,1015,123,-1540,752
1721677366.014692,-45,-73,1022,-43,-1960,700
1721677366.023942,-41,-76,1026,-122,-2354,498
1721677366.033192,-24,-73,1020,-61,-2433,446
1721677366.042442,-32,-83,1014,18,-2258,288
1721677366.051697,-48,-84,1009,62,-2057,183,-23693,15747,71997,84544,32723, 157387.000, 40.0102418,-105.2442388, 1589.782,1611.110, 7.598,6.555
1721677366.060947,-56,-90,1008,62,-1873,367
1721677366.070197,-57,-91,1007,97,-1558,306
1721677366.079447,-57,-89,1008,9,-1015,192
1721677366.088697,-62,-88,1014,-26,-403,393
1721677366.097947,-68,-88,1020,-96,148,901
1721677366.107197,-66,-87,1024,-280,568,1548
1721677366.116447,-64,-94,1026,-472,1303,2143
1721677366.125702,-49,-92,1029,-630,1977,2345,-23608,15606,72070,84545,32730
1721677366.134952,-35,-93,1026,-778,2520,2353
1721677366.144202,-40,-97,1024,-910,2835,1960
1721677366.153452,-48,-92,1027,-1058,2975,1470
1721677366.162702,-46,-92,1026,-1041,2931,1653
1721677366.171952,-40,-88,1031,-1163,2922,2345
1721677366.181202,-26,-76,1025,-1400,2817,3141
1721677366.190452,-17,-67,1023,-1496,2467,4147
1721677366.199707,-2,-59,1020,-1452,1697,4935,,,,84539,32727, 157387.100, 40.0102442,-105.2442393, 1589.900,1611.228, 7.477,6.452
1721677366.208957,8,-55,1017,-1330,883,5897
1721677366.218207,0,-50,1016,-848,17,6851
1721677366.227457,-4,-44,1021,-218,-1050,8023
1721677366.236707,-5,-48,1028,622,-1864,9957
1721677366.245957,-20,-46,1035,1497,-2485,12792
1721677366.255207,-18,-50,1035,2433,-3002,15408
1721677366.264457,-74,-49,1045,3299,-3177,16905
1721677366.273712,-277,-174,1071,3964,-3282,17246,-23815,14752,72039,,, 157387.200, 40.0102471,-105.2442398, 1590.056,1611.384, 7.361,6.354
1721677366.282962,-204,-208,1071,4034,-2223,7875
1721677366.292212,-167,-150,1066,2380,1137,-2643
1721677366.301462,-61,-133,1056,893,4025,-9477
1721677366.310712,-22,-18,1056,0,6335,-12714
1721677366.319962,11,-101,1051,-297,7008,-12172
1721677366.329212,15,-123,1048,560,6921,-10903
1721677366.338462,-18,-94,1045,552,6186,-35
1721677366.347717,-59,-67,1034,35,5302,10937,-23529,14697,72308,84541,32736, 157387.300, 40.0102486,-105.2442403, 1590.073,1611.401, 7.238,6.254
1721677366.356967,-89,-68,1028,-358,4698,17132
1721677366.366217,-96,-86,1019,-463,4637,19005
1721677366.375467,-84,-104,1006,-708,5180,17307
1721677366.384717,-51,-109,998,-1093,6081,13352
1721677366.393967,-14,-94,984,-1435,6912,8828
1721677366.403217,25,-73,976,-1732,7603,5040
1721677366.412467,54,-50,977,-1653,7691,2336
1721677366.421723,75,-42,982,-988,7008,1356,-23345,14410,72546,84543,32738
1721677366.430973,80,-24,989,0,5670,2100
1721677366.440223,57,-42,998,1094,3718,4401
1721677366.449473,4,-49,1020,2100,1093,7402
1721677366.458723,-38,-50,1041,2459,-1610,11025
1721677366.467973,-71,-86,1054,2284,-3649,13492
1721677366.477223,-91,-119,1049,2267,-4612,13352
1721677366.486473,-95,-128,1035,2240,-4437,12048
1721677366.495728,-96,-121,1026,2083,-3395,10675,-23480,13751,72503,84542,32734, 157387.400, 40.0102496,-105.2442407, 1590.041,1611.369, 7.121,6.159
1721677366.504978,-101,-123,1022,1995,-1978,8968
1721677366.514228,-91,-132,1019,2328,-534,6615
1721677366.523478,-69,-128,1024,2625,1225,4768
1721677366.532728,-38,-135,1028,2905,2861,3928
1721677366.541978,-15,-145,1028,2949,4208,3298
1721677366.551228,-6,-131,1028,2652,4707,3421
1721677366.560478,4,-111,1026,1567,4471,5232
1721677366.569794,10,-83,1027,280,3946,7630,,,,,, 157387.500, 40.0102497,-105.2442407, 1589.940,1611.268, 7.013,6.071
1721677366.579044,-7,-102,1022,-621,3526,9038
1721677366.588294,-18,-111,1016,-700,3526,8443
1721677366.597544,-13,-104,1012,-735,4182,8146
1721677366.606794,-13,-103,1007,-892,5118,8303
1721677366.616044,-8,-113,1005,-1128,5976,7113
1721677366.625294,0,-119,1001,-1400,6676,5302
1721677366.634544,16,-122,995,-1793,7315,4392
1721677366.643799,21,-130,993,-2187,7971,4348,-23181,13476,72729,84545,32747, 157387.600, 40.0102503,-105.2442405, 1589.888,1611.216, 6.920,5.986
1721677366.653049,14,-102,994,-2642,8050,5153
1721677366.662299,18,-71,993,-3578,7665,7761
1721677366.671549,18,-74,993,-4296,7122,10272
1721677366.680799,20,-81,992,-4182,6536,12267
1721677366.690049,14,-81,991,-3657,6098,13947
1721677366.699299,15,-83,989,-3325,5775,15400
1721677366.708549,3,-92,992,-3062,5486,16362
1721677366.717804,-23,-82,1001,-2913,4943,16940,-22863,13037,73077,84545,32749
1721677366.727054,-48,-90,1013,-3255,4392,16170
1721677366.736304,-55,-112,1025,-3718,4401,12993
1721677366.745554,-49,-122,1037,-4033,5127,8452
1721677366.754804,-20,-120,1043,-4453,6186,5075
1721677366.764054,9,-109,1039,-5075,7367,3246
1721677366.773304,29,-81,1032,-5845,8050,2038
1721677366.782554,26,-67,1031,-6553,8111,1968
1721677366.791809,35,-67,1027,-6711,7857,3045,-22363,13073,73492,84545,32756, 157387.700, 40.0102503,-105.2442400, 1589.786,1611.114, 6.821,5.895
1721677366.801059,51,-62,1017,-6378,7918,4602
1721677366.810309,55,-54,1016,-5801,8207,6448
1721677366.819559,67,-57,1010,-5162,8050,8645
1721677366.828809,47,-55,1004,-4663,7638,10325
1721677366.838059,20,-50,1003,-4637,6903,11191
1721677366.847309,7,-56,1007,-4891,6370,9415
1721677366.856559,15,-69,1009,-4908,6492,6326
1721677366.865875,24,-68,1013,-4742,6991,3482,-21832,13336,73895,,, 157387.800, 40.0102501,-105.2442397, 1589.691,1611.019, 6.726,5.808
1721677366.875125,24,-52,1019,-4690,7560,568
1721677366.884375,46,-41,1018,-4646,7971,-3177
1721677366.893625,54,-12,1005,-4322,8435,-6152
1721677366.902875,68,-23,991,-3666,8645,-6773
1721677366.912125,105,-79,976,-2231,8636,-3649
1721677366.921375,42,-84,968,-1085,8233,-4209
1721677366.930625,-14,-60,962,-1225,6895,-6738
1721677366.939819,3,-115,967,-1793,6186,-10019,-21130,13885,74444,84546,32763
1721677366.949069,-44,-134,996,-2047,6457,-13528
1721677366.958319,-92,-99,1022,-2423,6667,-14114
1721677366.967569,-54,-91,1034,-3001,7901,-9153
1721677366.976819,-7,-82,1039,-3307,10027,-2319
1721677366.986069,22,-61,1038,-3797,11602,-1847
1721677366.995319,159,-51,996,-4007,12416,-3019
1721677367.004569,144,-57,1000,-3998,12661,-4629
1721677367.013825,110,-60,1030,-3797,10622,-7114,,,,84549,32765, 157387.900, 40.0102501,-105.2442391, 1589.577,1610.905, 6.618,5.711
1721677367.023075,109,-63,1050,-3482,8216,-7263
1721677367.032325,144,-72,1060,-3342,6938,-6484
1721677367.041575,141,-68,1069,-3351,5845,-5994
1721677367.050825,101,-55,1074,-3771,4060,-6012
1721677367.060075,80,-32,1063,-4191,2336,-4603
1721677367.069325,79,0,1046,-4226,1373,-753
1721677367.078575,92,-6,1039,-3473,831,3045
1721677367.087830,91,-3,1035,-2353,227,4698,-20825,14251,74676,,, 157388.000, 40.0102501,-105.2442386, 1589.494,1610.822, 6.532,5.631
1721677367.097080,121,17,1019,-1496,-543,5407
1721677367.106330,156,16,996,-525,-1155,6125
1721677367.115580,174,24,981,1173,-2240,8146
1721677367.124830,178,8,972,3317,-4095,11103
1721677367.134080,155,-10,973,5574,-6475,12136
1721677367.143330,104,-31,981,7508,-9109,12171
1721677367.152580,54,-64,1005,9389,-11603,13413
1721677367.161835,31,-76,1025,10815,-12653,15312,-21307,12817,74261,84546,32773, 157388.100, 40.0102504,-105.2442386, 1589.474,1610.802, 6.458,5.566
1721677367.171085,14,-89,1030,11708,-12504,15820
1721677367.180335,6,-94,1031,12242,-12023,15207
1721677367.189585,-1,-74,1034,12347,-11472,15041
1721677367.198835,-13,-58,1041,12242,-10684,13982
1721677367.208085,-1,-72,1046,12522,-9765,10193
1721677367.217335,24,-46,1053,13064,-8427,4585
1721677367.226585,16,-121,1044,13012,-7342,-2940
1721677367.235840,-319,-378,1080,13318,-6729,-11463,-21472,13269,74224,84541,32767
1721677367.245090,-371,-465,1062,11752,-6143,-34335
1721677367.254340,-50,-482,1021,6038,-167,-72932
1721677367.263590,201,-350,981,-560,5617,-73054
1721677367.272840,248,-124,976,-6212,6011,-42587
1721677367.282090,189,33,969,-9782,3088,-16757
1721677367.291340,129,102,965,-10158,218,-5994
1721677367.300590,61,89,964,-8452,-1409,-3413
1721677367.309845,126,-7,969,-5853,-2293,-2354,-21643,13275,74176,84545,32769, 157388.200, 40.0102504,-105.2442373, 1589.414,1610.742, 6.381,5.491
1721677367.319095,88,20,963,-3403,-2547,9152
1721677367.328345,-37,6,966,-1986,-3763,21813
1721677367.337595,-69,-42,985,-743,-4367,16248
1721677367.346845,29,-75,996,893,-3177,11436
1721677367.356095,18,-144,1002,1584,-1847,3850
1721677367.365345,8,-151,1013,1190,-1777,-3772
1721677367.374595,-9,-121,1026,184,-1978,682
1721677367.383850,-40,-87,1034,-350,-1838,9152,-21734,12866,74121,,, 157388.300, 40.0102501,-105.2442366, 1589.363,1610.691, 6.298,5.414
1721677367.393100,-9,-106,1030,-52,-840,18305
1721677367.402350,80,-82,1020,902,603,24736
1721677367.411600,193,-89,1005,1435,1356,15907
1721677367.420850,180,-93,1011,1952,665,1260
1721677367.430100,109,-62,1030,2494,-1654,-5539
1721677367.439350,54,-41,1054,3002,-3859,-4970
1721677367.448600,61,22,1066,4157,-4787,-1803
1721677367.457855,148,61,1052,5618,-4682,1067,,,,84545,32776, 157388.400, 40.0102494,-105.2442359, 1589.277,1610.605, 6.222,5.342
1721677367.467105,114,-13,1061,7779,-4629,-97
1721677367.476355,92,-37,1061,9984,-5557,-5933
1721677367.485605,37,-147,1056,11209,-6152,-9932
1721677367.494855,-9,-210,1058,11743,-6160,-11962
1721677367.504105,0,-211,1056,11017,-5627,-7455
1721677367.513355,40,-185,1051,9319,-4550,1190
1721677367.522605,76,-191,1050,7604,-3877,6282
1721677367.531860,114,-192,1047,6423,-3938,6947,-22033,12219,73986,84541,32787
1721677367.541110,128,-191,1041,5285,-4288,5810
1721677367.550360,110,-173,1035,4104,-5215,6772
1721677367.559610,79,-143,1029,2687,-6484,8382
1721677367.568860,-48,-110,1018,1672,-7333,6973
1721677367.578110,-92,-80,1007,1033,-7508,3088
1721677367.587360,-59,-30,982,753,-5670,5320
1721677367.596610,-81,-70,967,1199,-3308,9528
1721677367.605866,0,-77,958,1969,-1243,10596,-22271,11383,73858,84548,32793, 157388.500, 40.0102495,-105.2442352, 1589.249,1610.577, 6.150,5.279
1721677367.615116,16,-127,960,2844,901,18637
1721677367.624366,41,-159,966,3010,2030,17412
1721677367.633616,88,-190,975,2730,2843,17325
1721677367.642866,152,-244,987,1864,3106,14411
1721677367.652116,188,-258,999,-70,2415,5626
1721677367.661366,176,-222,1014,-3088,586,-2897
1721677367.670616,130,-166,1022,-6256,-1969,-9188
1721677367.679871,87,-116,1025,-8610,-4192,-12093,-22357,12109,73846,,, 157388.600, 40.0102486,-105.2442347, 1589.185,1610.513, 6.089,5.231
1721677367.689121,73,-82,1021,-9966,-5285,-15435
1721677367.698371,53,-81,1023,-10447,-5600,-17737
1721677367.707621,37,-90,1024,-10193,-5758,-13852
1721677367.716871,48,-68,1018,-9835,-5872,-8925
1721677367.726121,94,-63,1009,-9406,-5924,-5872
1721677367.735371,130,-105,1009,-8548,-6467,-5259
1721677367.744621,143,-155,1014,-7682,-7832,-5915
1721677367.753876,123,-168,1024,-7761,-9835,-6493,-23083,13140,73181,84543,32787, 157388.700, 40.0102482,-105.2442342, 1589.188,1610.516, 6.043,5.189
1721677367.763126,70,-150,1033,-8881,-12259,-7788
1721677367.772376,47,-113,1031,-10123,-14350,-10089
1721677367.781626,18,-84,1029,-10806,-15295,-12478
1721677367.790876,-43,-63,1031,-10508,-15575,-14123
1721677367.800126,-84,-48,1032,-9660,-15129,-13930
1721677367.809376,-78,-33,1026,-8242,-13712,-11865
1721677367.818626,-49,-30,1023,-6781,-11717,-10369
1721677367.827881,-27,-25,1024,-5258,-9870,-9188,,,,84551,32798
1721677367.837131,0,-40,1029,-3832,-8584,-9625
1721677367.846381,0,-54,1036,-2633,-7805,-10255
1721677367.855631,5,-61,1049,-2091,-7587,-9897
1721677367.864881,3,-54,1061,-2021,-7700,-9485
1721677367.874131,-34,-33,1062,-2231,-8007,-9004
1721677367.883381,-66,-15,1059,-2415,-8138,-8077
1721677367.892631,-82,6,1047,-2012,-7534,-6580
1721677367.901886,-74,1,1031,-892,-6265,-5207,-23480,13641,72827,84544,32800, 157388.800, 40.0102482,-105.2442335, 1589.210,1610.538, 5.998,5.151
1721677367.911136,-42,-8,1015,692,-4647,-3343
1721677367.920386,-18,-48,1007,2214,-3010,-1960
1721677367.929636,-7,-85,1007,3360,-2074,-2398
1721677367.938886,0,-93,1014,3833,-1794,-2468
1721677367.948136,-9,-108,1019,3605,-1680,-2949
1721677367.957386,-4,-110,1024,3133,-1610,-3168
1721677367.966636,-3,-91,1031,2564,-1453,-2687
1721677367.975891,-20,-82,1035,1794,-1374,-1952,-23626,13659,72772,,, 157388.900, 40.0102475,-105.2442327, 1589.159,1610.487, 5.948,5.108
1721677367.985141,-41,-79,1030,1278,-1138,-1304
1721677367.994391,-32,-67,1018,1007,-525,-683
1721677368.003641,-18,-72,1006,1042,411,-62
1721677368.012891,0,-95,1001,1453,1382,-263
1721677368.022141,22,-117,1002,1890,2047,-937
1721677368.031391,40,-140,1004,1908,2327,-1558
1721677368.040641,43,-146,1007,1462,2003,-1987
1721677368.049896,36,-144,1010,368,1268,-2468,-23541,13464,72772,84550,32800, 157389.000, 40.0102478,-105.2442322, 1589.206,1610.534, 5.901,5.072
1721677368.059146,23,-122,1012,-980,455,-2879
1721677368.068396,9,-106,1013,-2213,-175,-3229
1721677368.077646,2,-102,1015,-2835,-464,-4069
1721677368.086896,3,-91,1017,-3123,-333,-5355
1721677368.096146,4,-69,1020,-3333,-97,-6537
1721677368.105396,4,-54,1019,-3316,35,-6790
1721677368.114646,0,-48,1022,-3115,96,-6047
1721677368.123901,1,-63,1026,-2756,26,-5102,-23516,13769,72741,84539,32806
1721677368.133151,5,-80,1027,-2266,-62,-4445
1721677368.142401,0,-81,1027,-1968,-289,-3675
1721677368.151651,-13,-58,1029,-2257,-753,-2275
1721677368.160901,-15,-59,1029,-2432,-1190,-884
1721677368.170151,-2,-72,1031,-1986,-1313,-350
1721677368.179401,-2,-71,1030,-1522,-1199,-963
1721677368.188651,-11,-66,1026,-1338,-1173,-1698
1721677368.197907,-17,-70,1021,-1050,-1042,-2625,-23474,13977,72711,84545,32806, 157389.100, 40.0102480,-105.2442315, 1589.252,1610.580, 5.863,5.050
1721677368.207157,-17,-80,1019,-533,-744,-3579
1721677368.216407,-23,-92,1014,-105,-289,-4620
1721677368.225657,-21,-106,1017,53,113,-5758
1721677368.234907,-33,-87,1025,-35,393,-5950
1721677368.244157,-48,-45,1030,-638,507,-5408
1721677368.253407,-49,-26,1031,-988,848,-4717
1721677368.262657,-37,-30,1034,-341,1487,-4122
1721677368.271912,-23,-41,1038,718,2362,-3010,,,,,, 157389.200, 40.0102479,-105.2442306, 1589.334,1610.662, 5.834,5.032
1721677368.281162,-17,-49,1041,1549,3123,-1934
1721677368.290412,-16,-59,1039,2188,3648,-1190
1721677368.299662,-7,-85,1033,2757,4042,-657
1721677368.308912,1,-99,1027,3045,4357,-193
1721677368.318162,9,-115,1024,2923,4567,411
1721677368.327412,17,-125,1026,2608,4488,726
1721677368.336662,14,-109,1026,1864,4121,805
1721677368.345917,6,-79,1023,884,3666,490,-23223,13806,72906,84544,32811, 157389.300, 40.0102484,-105.2442303, 1589.388,1610.716, 5.808,5.014
1721677368.355167,2,-59,1022,438,3386,682
1721677368.364417,1,-68,1021,779,3333,1400
1721677368.373667,0,-78,1018,1287,3325,1802
1721677368.382917,5,-81,1013,1567,3298,1330
1721677368.392167,7,-96,1009,1785,3202,1102
1721677368.401417,7,-104,1008,2022,3018,708
1721677368.410667,6,-109,1011,2048,2931,192
1721677368.419922,28,-134,1014,1934,2887,-359,-23028,13629,73162,84541,32815
1721677368.429172,105,-147,1013,1558,2686,-1435
1721677368.438422,110,-140,1017,499,1907,-2888
1721677368.447672,75,-138,1022,-831,148,-3562
1721677368.456922,89,-150,1022,-1995,-1549,-4953
1721677368.466172,117,-154,1016,-2625,-2687,-6563
1721677368.475422,287,-170,994,-3622,-4069,-7735
1721677368.484672,187,-108,1005,-4698,-6187,-6090
1721677368.494049,-13,-141,1033,-5477,-10649,-307,-23474,14245,72741,84546,32822, 157389.400, 40.0102487,-105.2442297, 1589.468,1610.796, 5.785,4.997
1721677368.503299,-104,-103,1047,-6028,-13598,-3964
1721677368.512549,-107,-28,1039,-6895,-13432,-8164
1721677368.521799,-120,43,1029,-6982,-11655,-9118
1721677368.531049,-139,51,1023,-5923,-10002,-6554
1721677368.540299,-159,44,1019,-3981,-8112,-4174
1721677368.549549,-174,40,1016,-2091,-5863,-1917
1721677368.558799,-146,20,1018,-140,-3177,-455
1721677368.568115,-143,38,1023,1575,-490,1968,-23394,13720,72833,,, 157389.500, 40.0102492,-105.2442294, 1589.509,1610.837, 5.762,4.976
1721677368.577365,-122,33,1025,2975,1802,5573
1721677368.586615,-102,-1,1027,4717,3963,6938
1721677368.595865,-68,-47,1026,6607,5862,8715
1721677368.605115,-44,-76,1026,7910,7568,9292
1721677368.614365,-28,-84,1027,8514,8785,8417
1721677368.623615,-17,-85,1031,8654,9668,6440
1721677368.632865,-5,-111,1030,8750,10290,4576
1721677368.642059,2,-139,1033,8777,10745,3202,-22729,13397,73455,84548,32822
1721677368.651309,5,-148,1033,8199,10876,2073
1721677368.660559,-3,-150,1033,7167,10736,1671
1721677368.669809,-20,-142,1033,6152,10508,1697
1721677368.679059,-26,-145,1030,5268,10438,1575
1721677368.688309,-11,-142,1025,4612,10753,717
1721677368.697559,-10,-120,1034,4008,11200,-648
1721677368.706809,9,-108,1021,3352,11226,-1785
1721677368.716065,38,-118,1016,3255,11471,-1838,,,,84547,32835, 157389.600, 40.0102495,-105.2442286, 1589.518,1610.846, 5.734,4.951
1721677368.725315,48,-108,1012,3325,11655,-1969
1721677368.734565,40,-110,1010,3124,11112,-1584
1721677368.743815,47,-111,1014,2870,10290,-1164
1721677368.753065,41,-91,1018,2660,9493,-1068
1721677368.762315,45,-81,1021,2599,8610,17
1721677368.771565,61,-85,1019,2870,7875,1050
1721677368.780815,75,-83,1014,3229,7175,1811
1721677368.790070,68,-84,1008,3597,6300,2660,-22100,13134,73950,,, 157389.700, 40.0102493,-105.2442278, 1589.497,1610.825, 5.707,4.927
1721677368.799320,70,-102,1004,3912,5241,3465
1721677368.808570,72,-130,1001,4192,4278,3543
1721677368.817820,72,-148,1001,4235,3246,2791
1721677368.827070,69,-147,1003,3824,2178,2073
1721677368.836320,70,-145,1004,2967,1006,1522
1721677368.845570,62,-144,1004,2074,-132,945
1721677368.854820,54,-141,1006,1435,-1182,-210
1721677368.864075,53,-138,1001,1033,-1820,-1707,-22119,13006,74096,84538,32833, 157389.800, 40.0102494,-105.2442272, 1589.513,1610.841, 5.673,4.898
1721677368.873325,52,-128,1000,700,-2162,-2765
1721677368.882575,52,-132,996,359,-2433,-3325
1721677368.891825,43,-126,999,219,-2704,-3754
1721677368.901075,43,-132,1009,-35,-3150,-3824
1721677368.910325,40,-133,1020,-402,-3474,-3509
1721677368.919575,34,-130,1027,-866,-3833,-3185
1721677368.928825,35,-125,1027,-1478,-4113,-3194
1721677368.938080,32,-120,1027,-2047,-4262,-2704,-22308,12945,73730,84543,32835
1721677368.947330,27,-115,1030,-2493,-4130,-2328
1721677368.956580,30,-107,1028,-2878,-4017,-2249
1721677368.965830,30,-95,1027,-3132,-3850,-1943
1721677368.975080,40,-93,1026,-3193,-3527,-1042
1721677368.984330,50,-109,1025,-2878,-3264,-552
1721677368.993580,74,-129,1027,-2432,-3238,-622
1721677369.002830,75,-143,1029,-2388,-3465,-1182
1721677369.012085,69,-132,1029,-3018,-4253,-2188,-22674,13336,73437,84543,32839, 157389.900, 40.0102491,-105.2442267, 1589.545,1610.873, 5.639,4.869
1721677369.021335,62,-113,1026,-3946,-5355,-2932
1721677369.030585,54,-103,1023,-4602,-6370,-2608
1721677369.039835,40,-94,1019,-4908,-7123,-2660
1721677369.049085,47,-103,1017,-4742,-7639,-2302
1721677369.058335,37,-93,1014,-4436,-8094,-2722
1721677369.067585,19,-84,1009,-4322,-8637,-2844
1721677369.076835,11,-84,1003,-4042,-8960,-3212
1721677369.086090,18,-77,1001,-3412,-8995,-3177,,,,,, 157390.000, 40.0102494,-105.2442266, 1589.641,1610.969, 5.615,4.849
1721677369.095340,29,-97,1000,-2712,-8943,-2582
1721677369.104590,17,-81,964,-2205,-9022,-2197
1721677369.113840,10,-89,984,-2170,-9520,-2144
1721677369.123090,-88,-195,1001,-1601,-9923,385
1721677369.132340,-66,-198,1007,-1925,-9275,-3089
1721677369.141590,-21,-107,1014,-3981,-7657,-10912
1721677369.150840,-64,-47,1017,-5643,-6484,-12172
1721677369.160156,-100,-19,1019,-5871,-5644,-9713,-23126,13726,73022,84538,32844, 157390.100, 40.0102494,-105.2442266, 1589.702,1611.030, 5.598,4.834
1721677369.169406,-94,-13,1026,-5320,-4227,-7307
1721677369.178656,-95,-21,1031,-4375,-2328,-5250
1721677369.187906,-81,-12,1029,-3193,-569,-2862
1721677369.197156,-50,-15,1022,-2222,1102,-167
1721677369.206406,-33,-38,1024,-1120,2598,3115
1721677369.215656,-20,-73,1032,-17,3613,5320
1721677369.224906,-5,-97,1029,884,4497,6142
1721677369.234162,0,-77,1025,1050,5048,6273,-22979,13684,73199,84542,32844
1721677369.243412,-40,-78,1002,1024,5258,5836
1721677369.252662,-37,-56,984,1234,5512,5223
1721677369.261912,-34,-53,964,1759,6238,4532
1721677369.271162,-21,-81,955,2643,7131,5748
1721677369.280412,10,-96,952,3597,7840,6641
1721677369.289662,1,-91,959,3894,8146,7752
1721677369.298912,-26,-91,971,3614,7752,9476
1721677369.308167,-27,-103,989,3369,7428,10806,-22540,13098,73602,84544,32855, 157390.200, 40.0102517,-105.2442266, 1589.860,1611.188, 5.577,4.821
1721677369.317417,-24,-100,1018,3220,7770,10928
1721677369.326667,4,-117,1040,2827,8163,10211
1721677369.335917,29,-109,1063,2258,8653,8758
1721677369.345167,54,-111,1082,1540,8820,7341
1721677369.354417,55,-141,1095,823,8531,4593
1721677369.363667,74,-140,1099,79,8120,-315
1721677369.372917,77,-107,1102,-831,7717,-5198
1721677369.382172,50,-93,1088,-1417,6877,-5495,-22045,13177,73992,,, 157390.300, 40.0102526,-105.2442257, 1589.868,1611.196, 5.550,4.797
1721677369.391422,21,-74,1073,-1443,6072,-5434
1721677369.400672,-5,-57,1059,-1216,5696,-4122
1721677369.409922,-11,-51,1049,-472,5915,-1698
1721677369.419172,-7,-58,1040,770,6510,883
1721677369.428422,-59,-20,1031,2074,7140,2896
1721677369.437672,-12,-79,1016,3395,7586,3683
1721677369.446922,13,-99,1025,5224,8951,2686
1721677369.456177,46,-159,1031,6160,9555,4725,-21649,12957,74462,84543,32859, 157390.400, 40.0102529,-105.2442255, 1589.899,1611.227, 5.524,4.770
1721677369.465427,83,-177,1038,6143,9047,3123
1721677369.474677,90,-168,1039,4988,8102,726
1721677369.483927,100,-153,1034,3623,6422,-315
1721677369.493177,91,-152,1034,2564,4873,-333
1721677369.502427,94,-138,1025,1698,3587,-1575
1721677369.511677,92,-111,1014,1024,2528,-2127
1721677369.520927,100,-117,1008,630,1575,-1392
1721677369.530182,70,-170,1013,744,726,-595,,,,84546,32861
1721677369.539432,51,-165,1006,735,-114,2301
1721677369.548682,61,-152,996,-210,-613,1767
1721677369.557932,61,-148,998,-910,-875,1583
1721677369.567182,52,-128,1006,-1627,-1260,1942
1721677369.576432,52,-111,1006,-2441,-1680,1723
1721677369.585682,57,-108,1008,-2896,-1978,1942
1721677369.594932,61,-102,1007,-3080,-1960,1942
1721677369.604187,59,-84,1007,-3220,-1995,1986,-21716,12957,74389,84550,32863, 157390.500, 40.0102531,-105.2442252, 1589.973,1611.301, 5.500,4.745
1721677369.613437,29,-77,1010,-3263,-2144,3053
1721677369.622687,11,-79,1010,-2992,-2380,4602
1721677369.631937,4,-79,1014,-2616,-2109,5276
1721677369.641187,39,-125,1010,-2231,-1619,5573
1721677369.650437,114,-325,1002,-1846,-998,5101
1721677369.659687,163,-95,1005,-3123,-1085,-7289
1721677369.668937,132,-41,1015,-5731,-2057,-12084
1721677369.678223,76,-82,1030,-5258,-3492,-9179,-21801,13244,74212,,, 157390.600, 40.0102522,-105.2442245, 1589.991,1611.319, 5.477,4.725
1721677369.687473,51,-119,1037,-4331,-4822,-7534
1721677369.696723,69,31,1024,-4331,-5609,-6607
1721677369.705973,13,70,1016,-4698,-5994,-6440
1721677369.715223,-63,-122,1027,-2275,-6467,-2862
1721677369.724473,-33,-187,1005,175,-6073,1146
1721677369.733723,15,-93,983,-411,-4647,577
1721677369.742973,-15,30,963,-1653,-3885,-2660
1721677369.752228,-84,40,964,-1102,-3492,-3115,-21948,13153,74176,84547,32868, 157390.700, 40.0102515,-105.2442239, 1589.986,1611.314, 5.454,4.705
1721677369.761478,-102,18,973,1164,-2573,-1304
1721677369.770728,-47,-35,971,3264,-735,1251
1721677369.779978,28,-108,991,4708,1111,3998
1721677369.789228,74,-210,1011,5417,1890,5906
1721677369.798478,71,-258,1016,4690,1575,5740
1721677369.807728,136,-218,1002,2555,796,3885
1721677369.816978,172,-183,995,-52,52,1268
1721677369.826264,167,-203,994,-1907,-1208,-420,-22119,13104,74023,84544,32874
1721677369.835514,177,-197,992,-3115,-3168,-2267
1721677369.844764,57,-54,1012,-4620,-5207,-5032
1721677369.854014,-13,-10,1027,-5486,-6939,-5110
1721677369.863264,-58,-35,1031,-4401,-6992,-1829
1721677369.872514,-84,-50,1037,-3027,-5950,1461
1721677369.881764,-57,-11,1044,-2161,-4498,3710
1721677369.891014,-25,-4,1047,-1618,-2897,5337
1721677369.900269,-25,-15,1050,-813,-1654,7061,-21984,12884,74066,84537,32877, 157390.800, 40.0102524,-105.2442238, 1590.062,1611.390, 5.435,4.693
1721677369.909519,4,-68,1057,132,-814,8618
1721677369.918769,-30,-117,1060,1103,-70,8452
1721677369.928019,-56,-141,1057,1287,542,5556
1721677369.937269,-64,-133,1052,884,1855,1767
1721677369.946519,-53,-114,1044,412,3508,-1759
1721677369.955769,-31,-106,1044,97,5678,-3448
1721677369.965019,-15,-81,1041,79,7481,-3885
1721677369.974274,18,-78,1043,263,9065,-3859,,,,,, 157390.900, 40.0102521,-105.2442235, 1590.078,1611.406, 5.415,4.681
1721677369.983524,60,-113,1041,875,10185,-2599
1721677369.992774,114,-129,1033,1278,10841,245
1721677370.002024,159,-127,1022,963,10587,2161
1721677370.011274,183,-115,1011,525,9310,2756
1721677370.020524,201,-115,1002,202,7288,2905
1721677370.029774,230,-122,991,184,4760,2800
1721677370.039024,290,-114,957,377,1960,2406
1721677370.048279,214,-130,954,595,-1680,1417,-21667,12829,74426,84539,32887, 157391.000, 40.0102522,-105.2442234, 1590.163,1611.491, 5.397,4.672
1721677370.057529,107,-133,940,735,-6143,1137
1721677370.066779,46,-136,948,412,-9424,0
1721677370.076029,5,-104,960,-122,-11034,-3649
1721677370.085279,-5,-78,990,-586,-11804,-5452
1721677370.094529,-3,-103,1022,-883,-11822,-5513
1721677370.103779,-32,-140,1035,-1058,-11839,-4752
1721677370.113029,-72,-74,1037,-2038,-11620,-4542
1721677370.122284,-117,-97,1034,-3053,-10693,-4384,-22235,12988,73919,84550,32892
1721677370.131534,-103,-85,1039,-2896,-8803,-578
1721677370.140784,-85,-34,1042,-2922,-6055,1960
1721677370.150034,-97,-34,1043,-2765,-3640,4611
1721677370.159284,-97,-41,1042,-1977,-1199,5162
1721677370.168534,-121,-78,1036,-1058,1680,5337
1721677370.177784,-35,-59,1025,184,4593,14735
1721677370.187034,87,-78,1008,910,7350,15347
1721677370.196289,127,-82,1004,1190,9003,6133,-21923,12603,74267,84547,32896, 157391.100, 40.0102524,-105.2442230, 1590.281,1611.609, 5.379,4.664
1721677370.205539,129,-105,1006,1488,8426,5013
1721677370.214789,116,-131,1008,1663,7446,3526
1721677370.224039,107,-151,1001,1488,6536,2003
1721677370.233289,116,-155,987,989,5775,-420
1721677370.242539,125,-162,987,377,5040,-2345
1721677370.251789,137,-185,980,-446,3981,-3247
1721677370.261039,154,-185,988,-1478,2598,-4437
1721677370.270294,176,-228,989,-2966,901,-5382,-22186,13159,73980,,, 157391.200, 40.0102532,-105.2442232, 1590.327,1611.655, 5.360,4.656
1721677370.279544,201,-208,990,-4865,-1383,-4725
1721677370.288794,208,-183,1001,-7428,-3990,-5460
1721677370.298044,190,-85,1009,-9642,-6922,-6239
1721677370.307294,131,19,1026,-11147,-9879,-5898
1721677370.316544,100,-83,1036,-11095,-12609,122
1721677370.325794,80,-118,1034,-10010,-14517,2546
1721677370.335044,49,-85,1024,-9913,-15855,-350
1721677370.344299,35,-62,1017,-9835,-16625,-4393,,,,84550,32894
1721677370.353549,16,-65,1019,-9152,-16652,-7753
1721677370.362799,-26,-49,1027,-8172,-16617,-9039
1721677370.372049,-71,5,1033,-7551,-16389,-8768
1721677370.381299,-96,37,1039,-6886,-15689,-5329
1721677370.390549,-123,48,1045,-5521,-14158,-849
1721677370.399799,-190,47,1051,-3613,-12145,2651
1721677370.409049,-136,-3,1052,-1312,-9354,3823
1721677370.418305,-113,-10,1051,525,-5802,4777,-23040,13775,73315,84550,32903, 157391.300, 40.0102540,-105.2442231, 1590.410,1611.738, 5.341,4.648
1721677370.427555,-113,-65,1061,1645,-3220,8207
1721677370.436805,-114,-69,1064,2547,-779,7463
1721677370.446055,-102,-60,1068,2748,1548,4567
1721677370.455305,-61,-63,1068,3299,4060,2003
1721677370.464555,-21,-66,1061,3737,6378,761
1721677370.473805,-10,-74,1056,4253,8111,262
1721677370.483055,27,-127,1052,4804,9117,288
1721677370.492371,36,-147,1046,4988,10123,-473,-22674,13446,73681,84545,32909, 157391.400, 40.0102545,-105.2442229, 1590.540,1611.868, 5.323,4.641
1721677370.501621,23,-128,1032,4437,10141,-1278
1721677370.510871,52,-108,1018,3387,10080,-2135
1721677370.520121,83,-143,1016,2669,9808,-1584
1721677370.529371,111,-180,1011,2162,9196,-123
1721677370.538621,118,-134,1005,1260,8172,-132
1721677370.547871,97,-56,1008,-26,6387,-1462
1721677370.557121,13,-82,1013,-498,4681,-3518
1721677370.566376,48,-108,1022,70,3867,-4927,-22344,13586,73999,,, 157391.500, 40.0102562,-105.2442229, 1590.666,1611.994, 5.303,4.634
1721677370.575626,54,-56,1044,333,3578,-4909
1721677370.584876,8,-6,1043,438,2695,-3702
1721677370.594126,-23,104,1052,1033,1531,5092
1721677370.603376,-22,47,1062,2520,1268,6160
1721677370.612626,-23,-8,1075,5548,1190,8417
1721677370.621876,-47,14,1061,7114,1015,11191
1721677370.631126,-43,-75,1016,8173,1120,12215
1721677370.640381,-11,-181,983,9363,1723,12320,-22076,13208,74224,84543,32907
1721677370.649631,5,-232,967,9197,2546,6895
1721677370.658881,-141,-218,950,7657,3377,-5084
1721677370.668131,-51,-195,938,5775,4602,-18087
1721677370.677381,27,-42,938,4008,7603,-22462
1721677370.686631,-32,-29,948,2949,9170,-12058
1721677370.695881,60,-206,961,3553,9450,-5137
1721677370.705131,242,-217,976,3605,9966,-1453
1721677370.714386,239,-209,992,1707,8846,4690,-21795,13244,74383,84544,32914, 157391.600, 40.0102582,-105.2442224, 1590.796,1612.124, 5.285,4.626
1721677370.723636,186,-255,999,-691,5215,8522
1721677370.732886,130,-231,996,-3272,1828,7332
1721677370.742136,-27,-185,1003,-6011,-534,2388
1721677370.751386,-137,-111,1003,-8242,-1549,-3772
1721677370.760636,48,165,960,-9406,236,-6519
1721677370.769886,-36,75,980,-9380,2738,-8890
1721677370.779136,100,54,1035,-5958,2896,-385
1721677370.788391,58,4,1080,-3115,3325,7008,,,,,, 157391.700, 40.0102613,-105.2442222, 1590.987,1612.315, 5.266,4.615
1721677370.797641,20,-27,1097,-1601,2065,8312
1721677370.806891,18,-94,1092,-595,1330,8706
1721677370.816141,15,-127,1080,35,1356,5390
1721677370.825391,55,-141,1067,-105,1522,3001
1721677370.834641,125,-168,1052,-490,1653,481
1721677370.843891,147,-214,1033,-1172,1242,-1917
1721677370.853141,130,-220,1011,-2476,52,-5565
1721677370.862396,95,-180,991,-4200,-1024,-10667,-21710,13458,74450,84541,32918, 157391.800, 40.0102635,-105.2442222, 1591.069,1612.397, 5.246,4.603
1721677370.871646,108,-26,987,-5547,-1663,-15068
1721677370.880896,92,-22,993,-5617,-2030,-13143
1721677370.890146,115,-122,1010,-3981,-2512,-6878
1721677370.899396,163,-177,1004,-2511,-3465,-4489
1721677370.908646,337,-131,1023,-3167,-4638,-5137
1721677370.917896,176,-17,1044,-4296,-7700,-8252
1721677370.927146,262,-88,1055,-4418,-12093,-6082
1721677370.936401,175,-108,1068,-3666,-15033,525,-22351,13714,73883,84544,32934
1721677370.945651,5,-64,1067,-3666,-19040,1225
1721677370.954901,-70,-1,1050,-3867,-21613,-517
1721677370.964151,-113,-1,1009,-3587,-21455,-4690
1721677370.973401,-48,-53,978,-2056,-20178,-744
1721677370.982651,-105,-53,991,-708,-18550,3552
1721677370.991901,-202,-78,964,18,-17894,7892
1721677371.001151,-164,-139,939,324,-15882,14341
1721677371.010407,-174,-219,930,-131,-12749,15662,-23162,13452,73309,84543,32936, 157391.900, 40.0102638,-105.2442219, 1591.033,1612.361, 5.225,4.587
1721677371.019657,-177,-128,918,-1400,-9932,14201
1721677371.028907,-193,-71,927,-2992,-6913,19442
1721677371.038157,-208,-133,934,-4025,-3133,12661
1721677371.047407,-180,-163,940,-4567,1120,2546
1721677371.056657,-78,-15,958,-6107,5521,-4174
1721677371.065907,-96,138,998,-7420,9380,-10212
1721677371.075157,133,53,1015,-5862,11733,-17212
1721677371.084412,174,10,1005,-3333,13763,-25997,-22534,14434,73712,,, 157392.000, 40.0102646,-105.2442218, 1591.007,1612.335, 5.210,4.574
1721677371.093662,178,-60,1013,-1478,12932,-14937
1721677371.102912,147,-124,1032,-682,10438,-6659
1721677371.112162,156,-176,1039,-945,7586,-7184
1721677371.121412,151,-214,1037,-2310,5040,-8138
1721677371.130662,131,-240,1029,-4287,2607,-9477
1721677371.139912,98,-255,994,-6510,358,-11725
1721677371.149162,83,-237,994,-9248,-1295,-14630
1721677371.158447,85,-173,978,-12031,-2564,-17833,-22900,15838,73187,84545,32936, 157392.100, 40.0102664,-105.2442222, 1591.088,1612.416, 5.197,4.564
1721677371.167697,119,-65,981,-14315,-3693,-17675
1721677371.176947,79,-129,1021,-15461,-5277,-14315
1721677371.186197,69,-192,1050,-15758,-7245,-5609
1721677371.195447,64,-163,1099,-17281,-8934,-1392
1721677371.204697,-15,-74,1156,-19783,-10212,-3553
1721677371.213947,-60,-28,1172,-21656,-10955,-3290
1721677371.223197,-109,15,1178,-22242,-10369,-3010
1721677371.232453,-175,25,1167,-22032,-8864,-4690,,,,84545,32936
1721677371.241703,-161,54,1137,-21087,-6519,-8724
1721677371.250953,-102,72,1112,-19748,-3054,-11568
1721677371.260203,-91,120,1084,-17893,122,-11708
1721677371.269453,17,248,1054,-15505,2511,-8103
1721677371.278703,60,350,1061,-11952,4366,-5670
1721677371.287953,-12,336,1051,-6440,4803,-8024
1721677371.297203,-73,159,1048,683,4707,-3352
1721677371.306458,-105,-16,1052,7455,5635,6177,-22650,16748,73278,84540,32944, 157392.200, 40.0102684,-105.2442223, 1591.141,1612.470, 5.179,4.552
1721677371.315708,-184,-59,1021,11008,7061,9773
1721677371.324958,39,-182,961,11804,8758,8347
1721677371.334208,186,-267,933,11480,11042,-219
1721677371.343458,153,-189,917,9232,9791,-8829
1721677371.352708,84,-216,911,6300,6133,-8322
1721677371.361958,30,-191,893,3667,4733,-4095
1721677371.371208,57,-105,898,770,2590,848
1721677371.380463,63,-52,927,-1662,1986,2327,-22381,16699,73541,,, 157392.300, 40.0102668,-105.2442220, 1591.148,1612.476, 5.158,4.539
1721677371.389713,59,-96,948,-2213,822,4375
1721677371.398963,125,-41,973,-2520,-9,6177
1721677371.408213,105,-28,1014,-3395,-1173,7945
1721677371.417463,86,-6,1048,-3570,-2975,5722
1721677371.426713,103,19,1061,-3981,-4410,3692
1721677371.435963,80,-9,1072,-4305,-5688,-744
1721677371.445213,23,5,1070,-4602,-7070,-3859
1721677371.454468,-41,48,1072,-5468,-8269,-2958,-22900,17175,73077,84545,32947, 157392.400, 40.0102660,-105.2442219, 1591.253,1612.581, 5.141,4.529
1721677371.463718,67,-17,1037,-5932,-8278,-1050
1721677371.472968,-25,-67,1020,-5626,-7972,-2582
1721677371.482218,35,26,1037,-5775,-8322,3080
1721677371.491468,-51,-76,1030,-6037,-7692,5267
1721677371.500718,-84,-42,1043,-5363,-7569,-350
1721677371.509968,-29,6,1069,-5381,-6213,1942
1721677371.519218,-44,47,1090,-5320,-4332,-7797
1721677371.528473,-54,10,1114,-3928,-3299,-10238,-22753,17932,72985,84548,32960
1721677371.537723,-50,-13,1130,-2563,-1952,-12775
1721677371.546973,-60,31,1136,-2152,-648,-14368
1721677371.556223,-52,46,1136,-1995,297,-15462
1721677371.565473,-39,22,1131,-1102,1540,-15812
1721677371.574723,11,-19,1117,272,2695,-14385
1721677371.583973,-19,-18,1113,1304,3666,-11052
1721677371.593223,28,-20,1076,2013,4226,-8295
1721677371.602478,41,-70,1037,2783,4567,-5093,,,,84546,32960, 157392.500, 40.0102634,-105.2442209, 1591.508,1612.836, 5.125,4.518
1721677371.611728,36,-74,1009,3343,4725,-4699
1721677371.620978,34,-49,996,3387,4567,-4935
1721677371.630228,37,-59,998,3150,4366,-7149
1721677371.639478,106,-19,1006,2844,4182,-11410
1721677371.648728,9,-68,979,2433,3727,-15733
1721677371.657978,82,-126,980,2328,2178,-11122
1721677371.667228,42,-71,954,1155,2187,-11209
1721677371.676483,-32,-71,940,-350,866,-7954,-22363,18243,73205,,, 157392.600, 40.0102597,-105.2442201, 1591.808,1613.136, 5.110,4.506
1721677371.685733,-55,8,933,-1540,498,-7035
1721677371.694983,-62,25,944,-2205,1461,-6038
1721677371.704233,-40,2,934,-1933,2677,-4340
1721677371.713483,30,-36,945,-1680,3657,-1435
1721677371.722733,16,-38,952,-1968,4453,1986
1721677371.731983,1,-6,979,-2808,4261,358
1721677371.741233,26,18,995,-3893,4173,1653
1721677371.750488,22,23,999,-4900,4497,2721,-22070,18548,73297,84548,32971, 157392.700, 40.0102590,-105.2442199, 1591.983,1613.311, 5.100,4.495
1721677371.759738,44,12,1001,-5320,4462,1793
1721677371.768988,45,-23,998,-5040,4462,665
1721677371.778238,15,-1,1003,-5162,4340,-1558
1721677371.787488,12,30,1010,-5521,4147,-3833
1721677371.796738,37,8,1016,-5390,4313,-4839
1721677371.805988,91,5,1004,-5040,4541,-6939
1721677371.815238,50,-15,1004,-4462,4191,-4979
1721677371.824524,74,9,1002,-3937,3080,-3850,-21838,19201,73303,84548,32964
1721677371.833774,13,26,1003,-3850,2082,-3483
1721677371.843024,19,12,1001,-3788,866,-3107
1721677371.852274,31,-22,1003,-3543,402,-2704
1721677371.861524,29,-12,1012,-3368,-167,-1724
1721677371.870774,11,33,1026,-3657,-797,-1523
1721677371.880024,31,32,1025,-3648,-1068,-770
1721677371.889274,53,20,1031,-3045,-1182,2642
1721677371.898529,61,0,1040,-2380,-1672,5276,-21990,19366,73168,84544,32971, 157392.800, 40.0102590,-105.2442197, 1592.105,1613.433, 5.091,4.487
1721677371.907779,53,-5,1044,-1828,-2485,6370
1721677371.917029,9,2,1049,-1610,-3080,6168
1721677371.926279,29,40,1052,-1548,-3457,5661
1721677371.935529,70,7,1025,-1321,-3238,5600
1721677371.944779,77,0,1020,-866,-3527,3613
1721677371.954029,50,-5,1004,-945,-3938,1085
1721677371.963279,0,14,1030,-1365,-4594,-2774
1721677371.972534,26,19,1026,-1225,-4655,-3063,-22222,19543,73071,,, 157392.900, 40.0102607,-105.2442199, 1592.183,1613.511, 5.082,4.481
1721677371.981784,6,32,1035,-936,-4235,-2083
1721677371.991034,0,5,1028,-840,-3938,0
1721677372.000284,-17,4,1031,-787,-3763,3106
1721677372.009534,-13,7,1022,-971,-3177,3692
1721677372.018784,-16,24,1025,-1207,-2827,5267
1721677372.028034,-27,46,1025,-1321,-2083,4795
1721677372.037284,-6,65,1012,-1338,-1357,4173
1721677372.046539,5,49,1001,-901,-604,4742,,,,84543,32975, 157393.000, 40.0102617,-105.2442202, 1592.278,1613.606, 5.072,4.475
1721677372.055789,43,47,1006,307,78,4445
1721677372.065039,38,37,1010,1497,341,3753
1721677372.074289,31,28,1019,2844,227,3377
1721677372.083539,23,18,1029,4034,166,3981
1721677372.092789,0,25,1039,4944,26,5092
1721677372.102039,1,-2,1021,5513,-245,5013
1721677372.111289,-3,-12,1005,5207,-438,5617
1721677372.120545,6,-23,985,4524,-307,4480,-22369,19262,73040,84546,32973
1721677372.129795,-3,9,980,3833,-534,4690
1721677372.139045,-1,17,1002,3308,-604,4681
1721677372.148295,-13,3,1010,3457,-307,5223
1721677372.157545,14,-18,1040,3859,-70,6282
1721677372.166795,11,-15,1068,3850,-62,7700
1721677372.176045,24,-16,1080,3395,-490,6553
1721677372.185295,30,-15,1077,2923,-770,5871
1721677372.194550,14,17,1070,2564,-1243,5223,-22491,19073,73034,84541,32980, 157393.100, 40.0102615,-105.2442200, 1592.358,1613.686, 5.061,4.469
1721677372.203800,1,17,1064,2214,-1663,3517
1721677372.213050,21,38,1045,2625,-1610,1216
1721677372.222300,15,0,1056,2538,-1785,612
1721677372.231550,-40,101,1070,2783,-2109,656
1721677372.240800,32,45,1059,2818,-2380,1470
1721677372.250050,36,-33,1015,4017,-1995,-3072
1721677372.259300,11,-77,951,5137,-2284,6518
1721677372.268555,22,-37,965,4655,-2897,6125,-22772,18841,72912,,, 157393.200, 40.0102619,-105.2442200, 1592.453,1613.781, 5.051,4.463
1721677372.277805,41,52,1013,3903,-3115,2677
1721677372.287055,37,45,1055,3929,-3395,1190
1721677372.296305,43,8,1062,5242,-3780,2572
1721677372.305555,32,-2,1054,5915,-4314,3403
1721677372.314805,23,-6,1048,6055,-4909,2406
1721677372.324055,37,0,1044,5845,-5635,-753
1721677372.333305,48,-10,1047,5382,-6257,-3115
1721677372.342560,25,-22,1033,4953,-6817,-3255,-23095,18878,72680,84542,32991
1721677372.351810,34,-33,1015,4620,-7219,-3605
1721677372.361060,13,-13,1019,4078,-7385,-4970
1721677372.370310,18,-25,1012,3737,-7202,-6178
1721677372.379560,24,-42,999,3737,-6519,-7245
1721677372.388810,-5,-45,998,3684,-5924,-6922
1721677372.398060,-10,-38,1003,3483,-5312,-7009
1721677372.407310,-9,-37,1010,2967,-4795,-7569
1721677372.416565,-27,-48,1014,2205,-4498,-6869,,,,84545,32999, 157393.300, 40.0102621,-105.2442201, 1592.504,1613.832, 5.042,4.457
1721677372.425815,6,-35,1020,1374,-4288,-5390
1721677372.435065,2,-27,1018,210,-4209,-4900
1721677372.444315,-19,-37,1016,-525,-4297,-3168
1721677372.453565,-28,-24,1014,-1181,-4148,-788
1721677372.462815,-36,7,1027,-1513,-3728,-893
1721677372.472065,27,-104,1094,-1557,-3019,-840
1721677372.481315,72,26,1074,-1400,-2555,-875
1721677372.490723,-244,-31,1057,-2625,-3045,-3728,-23266,19146,72375,,, 157393.400, 40.0102647,-105.2442203, 1592.534,1613.862, 5.032,4.451
1721677372.499973,-187,23,999,-2371,-3395,218
1721677372.509223,-26,22,1021,-2633,192,-9520
1721677372.518473,-89,98,1051,-1793,2887,-9319
1721677372.527723,-69,-27,1057,-1120,3561,-5548
1721677372.536973,-72,-37,1069,-787,4620,-4017
1721677372.546223,-35,-22,1073,-1487,5635,-8637
1721677372.555473,28,-31,1083,-1863,6816,-13003
1721677372.564728,57,-41,1093,-1933,7551,-16013,-22833,19781,72467,84539,32999, 157393.500, 40.0102685,-105.2442212, 1592.724,1614.052, 5.022,4.445
1721677372.573978,24,70,1065,-2502,7087,-16144
1721677372.583228,90,-44,1098,-2126,6098,-13869
1721677372.592478,4,38,1122,-735,5643,-13449
1721677372.601728,41,-8,1113,-761,4620,-9748
1721677372.610978,38,3,1110,-166,4243,-9582
1721677372.620228,7,13,1101,175,3587,-10404
1721677372.629478,0,5,1071,867,3027,-10815
1721677372.638733,-13,38,1053,1882,2896,-12688,-22351,20355,72705,84542,33001
1721677372.647983,-17,46,1052,2380,2730,-14237
1721677372.657233,-27,30,1054,3527,2371,-12417
1721677372.666483,8,27,1057,4839,2327,-10264
1721677372.675733,-14,40,1062,5495,2100,-8864
1721677372.684983,-22,15,1061,6423,1566,-5793
1721677372.694233,-10,34,1043,7350,1251,-3588
1721677372.703483,1,121,1008,7499,1338,-2372
1721677372.712738,-32,-29,1011,8610,1540,-97,-22204,19903,72814,84537,33006, 157393.600, 40.0102704,-105.2442212, 1592.818,1614.146, 5.012,4.439
1721677372.721988,-17,77,996,9547,1575,1881
1721677372.731238,-16,37,982,9354,2213,17
1721677372.740488,-18,9,992,10282,2703,761
1721677372.749738,-18,-41,1000,10553,3115,507
1721677372.758988,-169,-17,982,10570,3526,-1068
1721677372.768238,19,13,969,9792,5013,-4585
1721677372.777488,71,-20,972,9205,7778,-12277
1721677372.786743,-6,-45,988,9687,7866,-14280,-21520,20019,73388,,, 157393.700, 40.0102721,-105.2442219, 1592.929,1614.257, 5.005,4.435
1721677372.795993,10,-26,987,9328,7770,-12373
1721677372.805243,22,-21,981,8540,8382,-13362
1721677372.814493,33,-45,979,8199,8478,-12084
1721677372.823743,55,-39,980,7902,8058,-8960
1721677372.832993,70,-36,984,7062,7288,-6344
1721677372.842243,49,-35,988,6003,5985,-4157
1721677372.851493,53,-36,1005,4979,4506,-3527
1721677372.860748,51,-29,1007,4130,3342,-5329,,,,84550,33012, 157393.800, 40.0102738,-105.2442221, 1593.026,1614.355, 4.999,4.431
1721677372.869998,34,-2,1023,3649,2301,-5802
1721677372.879248,9,-8,1024,3667,1321,-4270
1721677372.888498,-3,-31,1020,4113,525,-1365
1721677372.897748,-15,-21,1015,4472,192,708
1721677372.906998,-18,-24,1020,4410,385,507
1721677372.916248,-13,-29,1027,4629,691,-2100
1721677372.925498,-29,-31,1039,4857,1470,-5942
1721677372.934754,-50,-33,1041,4970,2353,-9398,-21234,20068,73449,84544,33023
1721677372.944004,-31,-13,1049,4900,3447,-11690
1721677372.953254,-51,-18,1053,4708,4410,-12215
1721677372.962504,-26,-33,1047,4437,4961,-11349
1721677372.971754,5,-12,1042,3903,5538,-13117
1721677372.981004,21,2,1031,3684,5967,-12452
1721677372.990254,-4,-34,1014,4052,5958,-9547
1721677372.999504,9,-48,985,4542,5853,-3360
1721677373.008759,38,-47,967,4463,6195,927,-20745,20251,73864,84540,33023, 157393.900, 40.0102757,-105.2442221, 1593.157,1614.485, 4.990,4.425
1721677373.018009,54,-59,976,4472,6282,848
1721677373.027259,62,-60,979,4699,6046,-2477
1721677373.036509,64,-64,986,4769,5643,-4822
1721677373.045759,64,-54,992,4402,5048,-6204
1721677373.055009,90,-50,990,3824,4182,-6344
1721677373.064259,99,-22,980,3045,3158,-4970
1721677373.073509,78,-25,976,2424,1776,-3973
1721677373.082764,51,-51,985,2267,323,-2835,-20568,20373,74029,,, 157394.000, 40.0102766,-105.2442224, 1593.241,1614.569, 4.981,4.419
1721677373.092014,17,-67,1001,2310,-788,-62
1721677373.101264,27,-40,1026,2153,-1453,2651
1721677373.110514,40,-49,1037,2083,-1794,4593
1721677373.119764,59,-82,1049,1847,-2022,5652
1721677373.129014,55,-81,1057,1339,-2695,5381
1721677373.138264,34,-56,1070,333,-3474,4182
1721677373.147514,-30,-44,1080,-350,-3973,2712
1721677373.156769,6,10,1083,-647,-4200,2922,-20806,20294,73840,84535,33028, 157394.100, 40.0102776,-105.2442225, 1593.312,1614.640, 4.974,4.414
1721677373.166019,40,-5,1083,-743,-3343,6545
1721677373.175269,60,-19,1076,-402,-2949,6658
1721677373.184519,16,-12,1068,105,-3282,6046
1721677373.193769,7,-45,1044,385,-3719,4322
1721677373.203019,23,-66,1024,937,-3535,3421
1721677373.212269,32,-57,1011,1068,-3247,901
1721677373.221519,40,-49,1005,1094,-3369,-552
1721677373.230774,37,-49,1005,1339,-3562,428,-21118,20178,73651,84539,33028
1721677373.240024,66,-55,1022,1392,-3973,1443
1721677373.249274,-27,-14,1004,1453,-4778,3692
1721677373.258524,18,-26,972,1042,-5408,2450
1721677373.267774,1,-46,963,1173,-5145,4795
1721677373.277024,-63,-56,958,1313,-5434,5932
1721677373.286274,-21,-55,954,1033,-5347,5390
1721677373.295524,-33,-32,956,630,-4428,5530
1721677373.304779,-7,-25,957,123,-3912,5880,,,,84548,33032, 157394.200, 40.0102798,-105.2442226, 1593.462,1614.790, 4.967,4.409
1721677373.314029,0,-27,970,-192,-3299,6273
1721677373.323279,4,-30,983,-385,-2818,6597
1721677373.332529,17,-36,994,-595,-2284,6895
1721677373.341779,39,-32,1003,-875,-1715,6046
1721677373.351029,45,-35,1021,-1190,-1532,5031
1721677373.360279,49,-33,1048,-1286,-1645,4908
1721677373.369529,53,-37,1061,-1356,-1943,5057
1721677373.378784,53,-40,1071,-1487,-2267,4173,-21331,20147,73443,,, 157394.300, 40.0102828,-105.2442230, 1593.689,1615.017, 4.958,4.403
1721677373.388034,59,-64,1090,-1592,-2678,2590
1721677373.397284,30,-32,1095,-1645,-2967,603
1721677373.406534,1,-30,1082,-1898,-3045,-1383
1721677373.415784,-4,-34,1064,-1680,-2757,-184
1721677373.425034,0,-17,1057,-1400,-2223,-18
1721677373.434284,-33,-8,1037,-980,-1785,630
1721677373.443534,-27,-2,1010,-271,-1322,1811
1721677373.452789,-6,-18,1004,622,-683,3928,-21447,19976,73443,84553,33045, 157394.400, 40.0102847,-105.2442233, 1593.777,1615.105, 4.949,4.397
1721677373.462039,-21,-39,1020,1575,157,5075
1721677373.471289,-21,-35,1025,2030,796,4593
1721677373.480539,1,-15,1022,1943,1583,2563
1721677373.489789,17,-23,1021,2109,2353,1321
1721677373.499039,17,-34,1029,2407,2546,1102
1721677373.508289,19,-43,1038,2520,2555,1242
1721677373.517539,25,-35,1053,2529,2633,1837
1721677373.526795,2,16,1070,2267,2607,1820,-21289,19714,73541,84546,33050
1721677373.536045,25,-55,1011,2310,2520,3211
1721677373.545295,44,-44,973,2713,2922,5573
1721677373.554545,32,26,974,2380,3150,5503
1721677373.563795,0,18,1012,3282,3473,8548
1721677373.573045,2,-23,1028,4533,3456,13002
1721677373.582295,6,-19,1036,4778,3753,14420
1721677373.591545,9,-28,1044,4568,3832,13755
1721677373.600800,1,-27,1055,4489,3736,12337,-21313,18969,73840,84546,33052, 157394.500, 40.0102868,-105.2442238, 1593.923,1615.251, 4.939,4.390
1721677373.610050,-14,-20,1064,4559,3298,10325
1721677373.619300,15,-62,1056,5058,3097,10631
1721677373.628550,43,-72,1048,5364,2887,10683
1721677373.637800,47,-86,1041,4988,2196,8443
1721677373.647050,37,-76,1038,4717,1120,6921
1721677373.656300,38,-87,1029,4489,236,5932
1721677373.665550,18,-90,1029,4445,-473,4550
1721677373.674805,2,-86,1031,4349,-884,3001,,,,,, 157394.600, 40.0102889,-105.2442242, 1594.104,1615.432, 4.929,4.383
1721677373.684055,-7,-81,1036,4297,-1042,2161
1721677373.693305,-7,-79,1041,4095,-1094,1933
1721677373.702555,-3,-70,1044,3684,-1068,2213
1721677373.711805,0,-55,1034,3133,-1085,3360
1721677373.721055,11,-44,1020,2652,-937,4698
1721677373.730305,21,-45,1022,2389,-849,4655
1721677373.739555,33,-17,1017,2695,-709,4243
1721677373.748810,37,-50,1008,2888,-805,5591,-21368,18615,73840,84546,33061, 157394.700, 40.0102912,-105.2442250, 1594.252,1615.580, 4.918,4.376
1721677373.758060,0,-43,1007,3317,-1278,6597
1721677373.767310,-2,-65,1011,3535,-1733,8522
1721677373.776560,3,-81,1021,3702,-1619,8531
1721677373.785810,35,-77,1020,3754,-1462,6063
1721677373.795060,41,-53,1019,3360,-1453,2782
1721677373.804310,41,-52,1018,3203,-1750,883
1721677373.813560,36,-48,1022,3448,-2083,805
1721677373.822815,393,-236,1002,3448,-2407,1522,-21539,18414,73651,84541,33056
1721677373.832065,108,-161,1033,2757,-3562,-937
1721677373.841315,-154,64,1015,-560,-7272,-15304
1721677373.850565,-65,-35,1016,-1408,-7779,-15094
1721677373.859815,-16,-38,981,490,-5145,-4078
1721677373.869065,-22,-43,965,1068,-3159,-2398
1721677373.878315,-19,-73,970,1470,-2232,2852
1721677373.887565,28,-129,973,1794,-1182,7113
1721677373.896820,-40,-96,970,1575,-18,5652,-21636,18371,73577,84545,33058, 157394.800, 40.0102948,-105.2442257, 1594.472,1615.800, 4.910,4.370
1721677373.906070,-46,-103,983,998,638,2441
1721677373.915320,-13,-114,976,805,2170,3325
1721677373.924570,96,-92,963,-341,3561,2205
1721677373.933820,77,-24,972,-2073,4077,2957
1721677373.943070,66,-25,979,-3526,3640,3841
1721677373.952320,79,-104,1013,-3368,2817,6982
1721677373.961570,3,-109,1046,-3167,2310,5897
1721677373.970825,-8,18,1025,-4226,2310,-4253,-21405,18591,73779,,, 157394.900, 40.0102963,-105.2442265, 1594.563,1615.891, 4.902,4.363
1721677373.980075,-15,6,1006,-4672,2808,-2713
1721677373.989325,-174,23,1043,-3421,3552,3010
1721677373.998575,-16,-84,1041,-2266,3841,9896
1721677374.007825,-36,-85,1061,-1513,5643,9782
1721677374.017075,-53,-1,1066,-2642,5897,4322
1721677374.026325,30,-72,1058,-3176,5845,8671
1721677374.035575,29,-38,1050,-2493,6405,10106
1721677374.044830,43,-41,1035,-2380,6063,5573,-21221,18542,74035,84545,33069
1721677374.054080,44,-36,1031,-1723,5390,1855
1721677374.063330,44,-55,1041,-918,4567,1128
1721677374.072580,43,-90,1050,0,3561,350
1721677374.081830,49,-102,1061,622,2668,87
1721677374.091080,46,-71,1064,657,1881,-263
1721677374.100330,43,-32,1061,289,1111,-998
1721677374.109580,50,-17,1055,202,367,-1917
1721677374.118836,59,-27,1051,403,-219,-2993,,,,84541,33069, 157395.000, 40.0102979,-105.2442270, 1594.644,1615.972, 4.892,4.356
1721677374.128086,37,-21,1047,797,-928,-3815
1721677374.137336,51,-45,1046,1225,-1663,-3404
1721677374.146586,54,-49,1027,1654,-2240,-1847
1721677374.155836,40,-62,1014,1952,-3037,2213
1721677374.165086,38,-65,1010,2170,-3702,5705
1721677374.174336,8,-55,1021,2232,-4034,7525
1721677374.183586,22,-92,1028,2319,-4463,6903
1721677374.192841,36,-66,1021,2100,-4375,3666,-21429,18444,73870,84542,33083, 157395.100, 40.0103002,-105.2442277, 1594.830,1616.158, 4.881,4.348
1721677374.202091,28,-40,1014,1488,-4542,1872
1721677374.211341,18,-28,1009,1278,-4734,822
1721677374.220591,11,-28,1009,1374,-4874,568
1721677374.229841,10,-35,1014,1829,-5040,1426
1721677374.239091,-1,-37,1015,2319,-5119,2353
1721677374.248341,-9,-64,1011,2809,-5137,2712
1721677374.257591,4,-68,1008,3142,-4699,3342
1721677374.266968,-1,-73,1001,3142,-4262,3972,-21734,18133,73693,,, 157395.200, 40.0103022,-105.2442282, 1594.952,1616.280, 4.869,4.338
1721677374.276218,-1,-76,995,3220,-3947,4007
1721677374.285468,-11,-80,995,3317,-3544,3640
1721677374.294718,-3,-84,994,3247,-3010,3526
1721677374.303968,5,-76,992,2932,-2442,3561
1721677374.313218,9,-75,992,2477,-2109,3386
1721677374.322468,10,-77,995,1978,-1978,3351
1721677374.331718,14,-79,998,1523,-1803,3815
1721677374.340851,8,-77,998,1120,-1750,4427,-21893,17694,73651,84542,33083
1721677374.350101,0,-79,1000,692,-1654,4672
1721677374.359351,8,-73,1004,438,-1287,4707
1721677374.368601,6,-75,1009,193,-762,4926
1721677374.377851,18,-72,1018,70,-499,4007
1721677374.387101,14,-74,1024,-245,-70,2668
1721677374.396351,15,-66,1021,-682,105,1653
1721677374.405601,17,-48,1017,-1207,280,638
1721677374.414887,5,-29,1016,-1723,210,218,-21881,17700,73565,84544,33083, 157395.300, 40.0103033,-105.2442280, 1595.072,1616.400, 4.865,4.337
1721677374.424141,10,-32,1018,-1785,192,1085
1721677374.433395,5,-58,1025,-1242,323,2511
1721677374.442649,0,-81,1024,-595,376,3473
1721677374.451903,19,-104,1022,-455,691,3342
1721677374.461157,22,-101,1018,-595,1032,2791
1721677374.470411,60,-84,1013,-875,1172,2187
1721677374.479665,47,-71,1020,-1102,1198,1846
1721677374.488953,54,-64,1015,-1260,638,2406,-21997,17761,73565,,, 157395.400, 40.0103052,-105.2442284, 1595.287,1616.615, 4.859,4.333
1721677374.498207,9,-53,1019,-1522,-44,2695
1721677374.507461,12,-79,1018,-1522,-762,3193
1721677374.516715,19,-85,1021,-1513,-1112,3447
1721677374.525969,17,-90,1025,-1828,-1514,2432
1721677374.535223,20,-75,1025,-2117,-1899,988
1721677374.544477,-8,-62,1025,-2292,-1987,61
1721677374.553731,11,-56,1021,-2117,-1978,-840
1721677374.562958,4,-65,1022,-1767,-1523,-972,,,,84541,33096, 157395.500, 40.0103061,-105.2442287, 1595.442,1616.770, 4.854,4.329
1721677374.572208,-15,-69,1034,-1382,-1252,-875
1721677374.581458,-2,-54,1041,-1137,-1068,-1269
1721677374.590708,-9,-31,1045,-1251,-613,-1514
1721677374.599958,-14,-27,1050,-1338,-438,-1365
1721677374.609208,10,-58,1057,-1181,-228,-972
1721677374.618458,3,-54,1056,-1050,70,787
1721677374.627708,0,-64,1041,-1207,175,1505
1721677374.636963,25,-40,1015,-1190,481,1120,-21972,17846,73553,84539,33089
1721677374.646213,21,-46,992,-1032,962,280
1721677374.655463,34,-94,986,-358,1006,-324
1721677374.664713,40,-92,985,-43,1190,-315
1721677374.673963,27,-73,989,-70,945,0
1721677374.683213,24,-75,1002,-131,533,-1042
1721677374.692463,-1,-67,1010,-323,297,-1505
1721677374.701713,27,-81,1016,-560,131,-1330
1721677374.710968,30,-77,1024,-848,61,-1733,-21954,17871,73492,84542,33102, 157395.600, 40.0103077,-105.2442289, 1595.609,1616.937, 4.849,4.326
1721677374.720218,32,-75,1029,-1470,-412,-657
1721677374.729468,33,-70,1029,-1872,-928,1365
1721677374.738718,7,-61,1028,-2327,-1304,2415
1721677374.747968,0,-45,1026,-2502,-1584,3438
1721677374.757218,-3,-33,1019,-2598,-1409,3552
1721677374.766468,-2,-20,1012,-2493,-1103,3570
1721677374.775718,-14,-14,1007,-1977,-980,3412
1721677374.784973,-12,-42,1011,-1233,-867,2668,-22082,17864,73468,,, 157395.700, 40.0103091,-105.2442290, 1595.754,1617.082, 4.841,4.321
1721677374.794223,-5,-75,1016,-691,-665,2292
1721677374.803473,14,-92,1018,-708,-517,2940
1721677374.812723,9,-87,1019,-1146,-543,3797
1721677374.821973,13,-73,1021,-1811,-727,3701
1721677374.831223,13,-56,1019,-2266,-875,2161
1721677374.840473,10,-55,1017,-2345,-945,481
1721677374.849723,8,-53,1016,-2056,-902,-735
1721677374.858978,3,-52,1018,-1916,-998,-875,-22137,18200,73455,84543,33107, 157395.800, 40.0103103,-105.2442290, 1595.888,1617.216, 4.834,4.313
1721677374.868228,0,-40,1027,-1697,-1120,-412
1721677374.877478,-8,-22,1042,-1470,-1295,43
1721677374.886728,-17,-37,1056,-1207,-1374,122
1721677374.895978,-13,-44,1057,-997,-1497,-403
1721677374.905228,-17,-44,1057,-962,-1479,-447
1721677374.914478,-2,-37,1047,-848,-1357,332
1721677374.923728,-10,-51,1040,-577,-972,1461
1721677374.932984,25,-70,1030,-218,-534,1933,,,,84536,33113
1721677374.942234,12,-92,1019,193,-289,2108
1721677374.951484,20,-87,1008,149,-298,1986
1721677374.960734,27,-92,1003,-113,-324,2572
1721677374.969984,21,-84,1003,-437,-700,2677
1721677374.979234,0,-124,1005,-980,-1112,2826
1721677374.988484,19,-67,1006,-1767,-1479,2248
1721677374.997734,4,-63,1016,-2905,-1689,2240
1721677375.006989,5,-48,1024,-3465,-1960,1898,-22290,18188,73364,84541,33115, 157395.900, 40.0103126,-105.2442293, 1596.096,1617.424, 4.820,4.304
1721677375.016239,1,-35,1028,-3727,-2092,1662
1721677375.025489,0,-20,1027,-3876,-1882,1872
1721677375.034739,7,-24,1020,-3753,-1628,1242
1721677375.043989,4,-35,1020,-3211,-1488,866
1721677375.053239,6,-48,1026,-2747,-1497,1356
1721677375.062489,0,-71,1027,-2476,-1444,1653
1721677375.071739,-49,-44,1029,-2467,-1470,1732
1721677375.080994,52,-29,1016,-2651,-1155,1373,-22399,18237,73260,,, 157396.000, 40.0103163,-105.2442300, 1596.476,1617.804, 4.805,4.291
1721677375.090244,31,-58,1007,-2598,-595,568
1721677375.099494,12,-38,1003,-2397,-902,813
1721677375.108744,6,-42,1015,-2240,-1225,87
1721677375.117994,-28,-44,1030,-2012,-1365,-280
1721677375.127244,-31,-49,1036,-1968,-1584,-272
1721677375.136494,-25,-54,1032,-2056,-1339,-412
1721677375.145744,-9,-43,1026,-2100,-989,402
1721677375.155029,-9,-49,1023,-2021,-665,1172,-22479,18249,73077,84544,33122, 157396.100, 40.0103189,-105.2442305, 1596.740,1618.068, 4.789,4.278
1721677375.164279,-24,-58,1028,-1811,-455,918
1721677375.173529,-40,-40,1032,-1662,-280,428
1721677375.182779,0,-70,1032,-1443,323,612
1721677375.192029,-4,-71,1039,-1408,866,971
1721677375.201279,-13,-76,1047,-1715,752,1330
1721677375.210529,8,-86,1046,-2152,691,1470
1721677375.219779,28,-73,1028,-2695,805,2388
1721677375.229035,16,-37,1019,-3255,831,3710,-22497,18243,73114,84547,33129
1721677375.238285,14,-42,1016,-3395,490,3771
1721677375.247535,21,-48,1022,-2983,385,2843
1721677375.256785,20,-32,1029,-2572,306,3902
1721677375.266035,17,-14,1033,-2152,17,5171
1721677375.275285,0,-26,1037,-1408,-263,5538
1721677375.284535,-7,-39,1039,-770,-683,5355
1721677375.293785,-6,-33,1042,-612,-1068,5748
1721677375.303040,-5,-13,1048,-630,-1190,6352,-22601,18029,72924,84551,33129, 157396.200, 40.0103205,-105.2442306, 1596.814,1618.142, 4.778,4.272
1721677375.312290,-10,-10,1054,-612,-1225,6055
1721677375.321540,-16,-17,1059,-288,-1138,5083
1721677375.330790,-20,-15,1059,27,-902,3893
1721677375.340040,-28,-15,1052,412,-692,2213
1721677375.349290,-19,-32,1047,928,-368,1225
1721677375.358540,-31,-49,1042,1532,17,1111
1721677375.367790,-1,-50,1034,1969,350,980
1721677375.377045,-2,-50,1032,2065,673,1470,,,,,, 157396.300, 40.0103208,-105.2442308, 1596.856,1618.184, 4.759,4.253
1721677375.386295,10,-47,1032,2162,691,1548
1721677375.395545,21,-39,1035,2240,621,1942
1721677375.404795,26,-15,1033,2415,525,2852
1721677375.414045,17,-22,1025,2704,245,3990
1721677375.423295,14,-85,1021,3159,87,4515
1721677375.432545,16,-98,1013,3264,-18,2975
1721677375.441795,10,-81,1013,2634,-62,411
1721677375.451050,20,-45,1027,1969,-272,-2057,-22644,17926,73132,84545,33140, 157396.400, 40.0103227,-105.2442311, 1597.035,1618.363, 4.740,4.233
1721677375.460300,31,-53,1028,1558,-237,-4165
1721677375.469550,-51,-66,1042,1427,-385,-12014
1721677375.478800,-30,-47,1035,928,-254,-12574
1721677375.488050,-28,-40,1022,350,656,-8908
1721677375.497300,-22,-76,1018,97,1330,-5950
1721677375.506550,-17,-14,1021,-78,1758,-5828
1721677375.515800,-8,-23,1014,-262,2187,-4358
1721677375.525055,5,-49,1005,272,2572,-1033,-22491,18005,73059,84541,33146
1721677375.534305,11,-103,994,587,2668,2371
1721677375.543555,8,-77,988,377,2546,3587
1721677375.552805,11,-81,985,-437,2318,2248
1721677375.562055,16,-59,987,-770,2283,-1260
1721677375.571305,7,-50,997,-883,2222,-2555
1721677375.580555,1,-30,1013,-988,1881,-3789
1721677375.589805,6,-18,1025,-1233,1715,-3404
1721677375.599060,17,19,1033,-1356,1487,-3054,-22363,18096,73162,84538,33142, 157396.500, 40.0103230,-105.2442313, 1597.050,1618.378, 4.721,4.212
1721677375.608310,-25,119,1033,-883,1417,-1645
1721677375.617560,45,3,1050,832,1461,3255
1721677375.626810,33,-29,1030,2494,1391,-1313
1721677375.636060,33,-79,1016,2993,647,2581
1721677375.645310,34,-126,1011,3150,-158,2371
1721677375.654560,-13,-151,1010,2433,-840,3158
1721677375.663810,7,-169,995,1225,-1322,4147
1721677375.673065,75,-76,984,-376,-998,7822,-22473,17932,73120,,, 157396.600, 40.0103240,-105.2442317, 1597.123,1618.451, 4.703,4.195
1721677375.682315,-93,-2,1005,-1951,-1269,8968
1721677375.691565,-79,25,1012,-1960,-1908,10167
1721677375.700815,-39,-1,1019,-1067,-490,3692
1721677375.710065,-79,28,1016,-288,498,-3885
1721677375.719315,1,-1,1019,665,1120,-5040
1721677375.728565,-33,10,1024,1654,2056,-3990
1721677375.737815,20,-19,1026,2468,1566,-893
1721677375.747070,13,-25,1019,3168,1373,1732,-22674,17639,73168,84546,33142, 157396.700, 40.0103252,-105.2442321, 1597.188,1618.516, 4.685,4.178
1721677375.756320,32,-45,1011,3317,577,5031
1721677375.765570,41,-57,999,3343,-158,7577
1721677375.774820,45,-72,987,3273,-735,8417
1721677375.784070,53,-76,984,3002,-1313,7647
1721677375.793320,30,-84,979,2582,-1750,6387
1721677375.802570,21,-77,982,2205,-2240,5635
1721677375.811820,16,-49,997,1803,-2599,5827
1721677375.821076,3,-55,1014,1418,-2949,5206,,,,84545,33159
1721677375.830326,3,-61,1029,1112,-3334,3465
1721677375.839576,4,-67,1034,989,-3737,3115
1721677375.848826,-8,-60,1036,158,-3982,3202
1721677375.858076,-15,-46,1040,-323,-3807,3281
1721677375.867326,-26,-76,1047,-490,-3448,1916
1721677375.876576,-40,-68,1051,-577,-2722,411
1721677375.885826,-38,-53,1053,-1172,-1838,-875
1721677375.895111,-23,-59,1057,-1505,-797,-875,-22827,17614,73046,84544,33151, 157396.800, 40.0103261,-105.2442324, 1597.268,1618.596, 4.668,4.160
1721677375.904361,-17,-68,1062,-1566,8,-289
1721677375.913611,-16,-75,1064,-1618,638,385
1721677375.922861,-18,-60,1067,-1627,1137,1120
1721677375.932111,-27,-40,1067,-1697,1487,1951
1721677375.941361,-33,-47,1062,-1583,1732,490
1721677375.950611,-30,-55,1053,-1496,2082,-1260
1721677375.959861,-16,-67,1041,-1610,2607,-2669
1721677375.969116,-11,-76,1033,-1767,2983,-3290,-22772,17822,73107,,, 157396.900, 40.0103274,-105.2442329, 1597.362,1618.690, 4.651,4.143
1721677375.978366,0,-80,1021,-1951,3027,-3080
1721677375.987616,8,-72,1008,-2380,2913,-2223
1721677375.996866,31,-41,994,-2887,2625,-700
1721677376.006116,26,-35,990,-2826,2082,953
1721677376.015366,19,-25,991,-2511,1286,2108
1721677376.024616,16,-16,994,-2065,708,2983
1721677376.033866,3,-34,997,-1321,323,2703
1721677376.043121,-14,-55,1003,-402,148,2143,-22729,17535,73101,84542,33162
1721677376.052371,-31,-53,1008,-17,78,2161
1721677376.061621,-9,-54,1013,-87,192,2948
1721677376.070871,10,-45,1022,-148,455,4086
1721677376.080121,-9,-46,1029,-105,481,4672
1721677376.089371,-9,-48,1036,-245,306,3316
1721677376.098621,0,-36,1038,-463,227,2371
1721677376.107871,14,-17,1036,-691,175,2406
1721677376.117127,7,-8,1038,-796,8,2625,-22790,17553,72985,84541,33168, 157397.000, 40.0103277,-105.2442331, 1597.408,1618.736, 4.633,4.124
1721677376.126377,-64,193,1091,-665,-385,2047
1721677376.135627,22,-160,1083,97,-438,-3527
1721677376.144877,-3,-86,1049,2109,262,-14062
1721677376.154127,31,-115,1024,1042,236,-2993
1721677376.163377,35,-61,1015,263,35,1286
1721677376.172627,17,-57,1012,-358,-342,4716
1721677376.181877,-2,-89,1006,-288,-744,5127
1721677376.191132,4,-78,1003,-210,-700,4392,,,,,, 157397.100, 40.0103284,-105.2442337, 1597.502,1618.830, 4.613,4.103
1721677376.200382,-8,-84,1010,-498,-525,3447
1721677376.209632,-17,-66,1022,-595,-455,2695
1721677376.218882,-1,-55,1032,-901,-254,2520
1721677376.228132,-13,-6,1042,-1277,43,-1077
1721677376.237382,-60,-60,1050,-1190,26,-2520
1721677376.246632,-29,-42,1059,-805,-53,-3544
1721677376.255882,-22,-39,1044,-1251,533,-3877
1721677376.265137,-22,-61,1035,-1268,1111,-6309,-22808,17590,73077,84547,33166, 157397.200, 40.0103289,-105.2442343, 1597.561,1618.889, 4.594,4.084
1721677376.274387,-18,-85,1013,-1023,1382,-6397
1721677376.283637,13,-76,1001,-1085,1951,-7893
1721677376.292887,-5,-91,998,-1295,2187,-7455
1721677376.302137,13,-77,997,-1417,2100,-4472
1721677376.311387,8,-80,1003,-1863,1872,-4472
1721677376.320637,5,-93,1004,-2310,1487,-7394
1721677376.329887,-17,-110,998,-2703,1233,-10299
1721677376.339142,-10,-89,1000,-3438,1111,-13554,-22589,18280,73065,84542,33172
1721677376.348392,-2,-45,1005,-4523,1146,-16188
1721677376.357642,10,-28,1001,-5442,1146,-17535
1721677376.366892,-7,-19,1013,-5801,945,-17737
1721677376.376142,-50,56,1005,-5897,691,-17229
1721677376.385392,10,-5,995,-5635,796,-14692
1721677376.394642,-24,-8,986,-4375,1233,-6983
1721677376.403892,6,-33,970,-3850,1155,-1567
1721677376.413147,-3,-40,960,-3473,1111,4952,-22479,18750,73040,84544,33172, 157397.300, 40.0103301,-105.2442347, 1597.651,1618.979, 4.577,4.067
1721677376.422397,-13,-63,970,-3438,831,7945
1721677376.431647,-9,-69,995,-3333,787,7638
1721677376.440897,-4,-79,1018,-3710,927,7700
1721677376.450147,2,-94,1032,-4261,1172,7113
1721677376.459397,22,-35,1052,-5083,1636,4375
1721677376.468647,26,1,1065,-5836,1916,4173
1721677376.477897,71,-8,1061,-5923,1802,5320
1721677376.487152,0,30,1072,-5547,1496,6588,-22473,18908,73071,,, 157397.400, 40.0103303,-105.2442348, 1597.639,1618.967, 4.562,4.051
1721677376.496402,33,21,1082,-5328,647,7901
1721677376.505652,42,13,1086,-4436,621,7682
1721677376.514902,13,87,1083,-3893,472,7603
1721677376.524152,-11,10,1084,-3333,-35,7761
1721677376.533402,20,-3,1080,-2012,385,1400
1721677376.542652,6,18,1070,-883,726,1662
1721677376.551902,17,20,1064,-420,691,796
1721677376.561188,38,-1,1062,455,761,-5548,-22363,19256,72943,84550,33190, 157397.500, 40.0103304,-105.2442348, 1597.610,1618.938, 4.549,4.037
1721677376.570438,47,7,1061,1348,656,-10605
1721677376.579688,29,0,1055,1759,-27,-13502
1721677376.588938,35,-32,1055,2083,-875,-17640
1721677376.598188,44,-36,1046,2477,-1357,-20440
1721677376.607438,112,-101,1013,2905,-1785,-18095
1721677376.616688,-78,84,994,3168,-2232,-12942
1721677376.625938,33,-71,990,3439,-3177,-6677
1721677376.635193,-31,23,996,4647,-2564,-16730,,,,84547,33188
1721677376.644443,-51,-22,994,4699,-2748,-11498
1721677376.653693,-37,-69,1008,5469,-2363,-15094
1721677376.662943,-65,-70,1018,5163,-1750,-18725
1721677376.672193,-90,-16,1025,4437,-1322,-16923
1721677376.681443,-95,109,1026,3640,-595,-15007
1721677376.690693,-86,85,1034,3675,700,-14018
1721677376.699943,-27,50,1030,5417,2065,-11655
1721677376.709198,-77,52,1027,6615,2800,-11515,-22149,19891,73138,84547,33188, 157397.600, 40.0103307,-105.2442348, 1597.654,1618.982, 4.535,4.022
1721677376.718448,15,-12,1008,7490,3447,-9100
1721677376.727698,-13,-25,981,8715,4462,5626
1721677376.736948,0,-121,963,9573,4655,14901
1721677376.746198,23,-67,949,9337,4742,5110
1721677376.755448,-33,30,956,8470,4567,4173
1721677376.764698,16,-44,962,8715,4173,5127
1721677376.773948,68,-166,960,9844,4007,7638
1721677376.783203,7,-196,966,9057,3097,9012,-22058,19104,73425,84542,33194, 157397.700, 40.0103310,-105.2442348, 1597.689,1619.017, 4.522,4.008
1721677376.792453,34,-208,965,7097,1478,8303
1721677376.801703,28,-175,973,4979,647,6326
1721677376.810953,4,-148,973,2328,-35,2712
1721677376.820203,-7,-192,972,35,-674,2047
1721677376.829453,-7,-174,976,-2248,-779,1855
1721677376.838703,-9,-97,979,-4961,-438,2528
1721677376.847953,-56,20,989,-7157,35,3045
1721677376.857239,-28,32,1008,-7918,822,1986,-22070,19207,73352,,, 157397.800, 40.0103318,-105.2442349, 1597.724,1619.052, 4.509,3.993
1721677376.866489,-5,42,1018,-6930,2283,3780
1721677376.875739,-16,44,1050,-5643,3368,5538
1721677376.884989,-16,-6,1065,-5136,4068,7385
1721677376.894239,-7,-54,1078,-4550,4777,10316
1721677376.903489,1,-122,1092,-4908,5390,11996
1721677376.912739,21,-74,1093,-5985,6020,8627
1721677376.921989,31,-32,1083,-7796,6615,971
1721677376.931244,66,-34,1083,-8697,6851,-6957,-21673,19708,73565,84536,33203
1721677376.940494,36,-30,1083,-8645,6702,-12679
1721677376.949744,148,65,1056,-8303,6317,-12749
1721677376.958994,73,30,1077,-7315,5818,-10334
1721677376.968244,62,6,1104,-4830,3622,-6484
1721677376.977494,44,-26,1094,-2940,2415,-1855
1721677376.986744,41,-47,1090,-1802,1662,306
1721677376.995994,64,-23,1081,-1085,980,1006
1721677377.005249,60,-3,1065,-586,332,2747,-21905,19274,73376,84544,33212, 157397.900, 40.0103321,-105.2442348, 1597.744,1619.072, 4.496,3.979
1721677377.014499,60,-7,1051,-148,-639,3788
1721677377.023749,104,5,1039,455,-1593,4628
1721677377.032999,68,41,1025,1339,-2407,5766
1721677377.042249,-6,-19,1030,2739,-3632,9353
1721677377.051499,7,-34,1022,4305,-4340,12976
1721677377.060749,-6,-49,1014,4935,-4262,11077
1721677377.069999,-1,-72,1009,5373,-4218,5661
1721677377.079254,-9,-84,1010,5539,-3929,1680,,,,,, 157398.000, 40.0103326,-105.2442347, 1597.739,1619.067, 4.484,3.965
1721677377.088504,3,-92,1014,5277,-3430,-1777
1721677377.097754,2,-133,1024,4795,-2652,-4673
1721677377.107004,61,-96,1033,4034,-2057,-4900
1721677377.116254,52,-164,1005,2302,-1339,-2739
1721677377.125504,-27,15,1018,0,-1068,-13598
1721677377.134754,-40,6,1018,-2056,-1435,-16669
1721677377.144004,-24,-14,1013,-1365,131,-8575
1721677377.153259,-17,-58,1003,-1207,1575,-5145,-21783,19592,73358,84546,33212, 157398.100, 40.0103334,-105.2442346, 1597.775,1619.103, 4.473,3.951
1721677377.162509,-4,-66,999,-1566,2283,-5565
1721677377.171759,0,-68,1000,-2222,2633,-5294
1721677377.181009,2,-68,999,-2695,2765,-4970
1721677377.190259,18,-57,987,-3403,3045,-6169
1721677377.199509,29,-36,980,-3570,3115,-7700
1721677377.208759,32,-26,983,-3631,3010,-8155
1721677377.218009,39,-35,993,-3552,2563,-7613
1721677377.227326,21,-32,1011,-3438,2021,-6633,-21545,20117,73498,84538,33223
1721677377.236576,-23,-41,1033,-3430,1233,-5110
1721677377.245826,-38,-65,1052,-3298,717,-1917
1721677377.255076,-11,40,1055,-3473,857,2695
1721677377.264326,27,-18,1051,-3885,910,3465
1721677377.273576,48,53,1043,-3456,700,-2582
1721677377.282826,67,66,1030,-2975,87,-44
1721677377.292076,61,48,1035,-1933,-700,-1015
1721677377.301331,39,16,1036,-752,-1829,-3483,-21533,20428,73352,84536,33225, 157398.200, 40.0103342,-105.2442349, 1597.829,1619.157, 4.465,3.940
1721677377.310581,25,15,1024,-87,-2827,-5697
1721677377.319831,23,5,1014,105,-3395,-7455
1721677377.329081,19,-45,1015,543,-3684,-6484
1721677377.338331,8,-40,1014,972,-3999,-5338
1721677377.347581,1,-5,1010,884,-4183,-4262
1721677377.356831,0,15,1009,928,-4052,-1602
1721677377.366081,8,35,1007,1418,-4052,1478
1721677377.375336,19,23,1004,2109,-4157,4681,-21936,19909,73132,,, 157398.300, 40.0103345,-105.2442351, 1597.823,1619.151, 4.457,3.931
1721677377.384586,11,0,1005,3080,-4332,8172
1721677377.393836,12,-18,998,3990,-4419,9633
1721677377.403086,10,-18,990,4673,-4437,9511
1721677377.412336,33,-47,987,5163,-4393,8540
1721677377.421586,-3,-82,997,5434,-4183,8347
1721677377.430836,-24,-79,1006,5189,-4078,7691
1721677377.440086,-20,-74,1012,4148,-3693,5941
1721677377.449341,-24,-41,1013,2827,-3089,6282,,,,84543,33225, 157398.400, 40.0103349,-105.2442352, 1597.883,1619.211, 4.449,3.922
1721677377.458591,-11,-8,1012,1733,-2433,6317
1721677377.467841,-7,-10,1021,1103,-1838,7612
1721677377.477091,1,-11,1033,1068,-1470,8618
1721677377.486341,9,-3,1041,1190,-1094,9896
1721677377.495591,16,18,1037,1348,-805,9773
1721677377.504841,-5,83,1032,1768,-578,9100
1721677377.514091,27,-54,1027,2669,-499,7131
1721677377.523346,11,-58,1026,4025,-175,2205,-22161,19555,73266,84550,33232
1721677377.532596,-36,-75,1019,4104,-202,3780
1721677377.541846,17,-27,1012,4052,35,2782
1721677377.551096,66,10,1015,3675,612,271
1721677377.560346,-2,69,1016,3859,253,2537
1721677377.569596,25,-5,1016,4577,-1112,8408
1721677377.578846,-241,-54,988,6353,-1357,12381
1721677377.588096,-172,-121,988,6633,-1173,12451
1721677377.597351,100,-177,964,6703,3552,9143,-22161,19140,73254,84542,33232, 157398.500, 40.0103351,-105.2442352, 1597.926,1619.254, 4.441,3.913
1721677377.606601,-159,-110,983,5390,5853,4427
1721677377.615851,-86,-110,957,2888,5066,455
1721677377.625101,-68,-91,974,1479,7656,-3010
1721677377.634351,-24,-41,1003,499,9423,-5215
1721677377.643601,75,54,1019,-271,10832,-5233
1721677377.652851,158,102,1037,-218,11410,-2258
1721677377.662101,214,29,1056,1147,10351,2992
1721677377.671356,134,0,1086,3098,7857,10675,-21862,18640,73748,,, 157398.600, 40.0103356,-105.2442354, 1597.984,1619.312, 4.433,3.905
1721677377.680606,66,-14,1101,4113,4733,17158
1721677377.689856,30,-43,1108,4874,2835,19521
1721677377.699106,18,-43,1107,5644,1960,18821
1721677377.708356,63,-46,1093,5898,1312,15592
1721677377.717606,48,-29,1088,5994,481,12127
1721677377.726856,39,-31,1073,6038,-893,8653
1721677377.736106,34,-61,1054,6458,-2074,5495
1721677377.745361,47,-71,1032,6974,-2993,2633,-22113,18139,73687,84549,33238
1721677377.754611,37,-86,1017,7210,-3719,498
1721677377.763861,4,-114,1001,7438,-4358,-788
1721677377.773111,-29,-97,992,7447,-4857,-1855
1721677377.782361,-13,-87,991,6957,-4708,-2179
1721677377.791611,-17,-108,997,6484,-4052,-2188
1721677377.800861,-17,-114,1000,5950,-3492,-2337
1721677377.810111,6,-88,1002,4997,-2897,-2223
1721677377.819367,12,-57,1006,3850,-2240,-989,-22229,17675,73565,84544,33243, 157398.700, 40.0103355,-105.2442354, 1597.961,1619.289, 4.426,3.897
1721677377.828617,26,-40,1006,3229,-1733,358
1721677377.837867,41,-26,1004,3072,-1313,1146
1721677377.847117,53,-40,1007,3255,-1295,1452
1721677377.856367,23,-58,1011,3098,-1462,2388
1721677377.865617,-10,-53,1009,2870,-2057,2992
1721677377.874867,1,-48,1004,2337,-2302,1592
1721677377.884117,0,-68,997,1978,-2057,-228
1721677377.893463,3,-83,990,1654,-1759,-2450,,,,84545,33249, 157398.800, 40.0103357,-105.2442353, 1598.000,1619.328, 4.421,3.892
1721677377.902713,-5,-72,987,1129,-1435,-5163
1721677377.911963,14,-68,976,525,-1015,-7420
1721677377.921213,170,-182,975,210,-473,-8759
1721677377.930463,34,-92,994,-201,-867,-10290
1721677377.939713,-59,-2,995,-2143,-2372,-14735
1721677377.948963,-48,-35,987,-2073,-2118,-10509
1721677377.958213,-76,-56,993,-945,-630,-4883
1721677377.967468,-85,-74,999,-420,656,-1138,-22198,17999,73571,,, 157398.900, 40.0103360,-105.2442354, 1598.050,1619.378, 4.415,3.887
1721677377.976718,-44,-86,996,-463,2135,35
1721677377.985968,-45,-70,997,-1023,3727,-727
1721677377.995218,-19,-68,1003,-1732,4795,-2057
1721677378.004468,-2,-85,1020,-1846,5766,-2827
1721677378.013718,32,-97,1031,-2073,6492,-3352
1721677378.022968,40,-79,1045,-2660,6781,-4375
1721677378.032218,32,-32,1045,-3403,6676,-6755
1721677378.041474,48,-36,1047,-3298,6746,-8575,-21661,18426,73834,84548,33260
1721677378.050724,10,-31,1052,-2756,6833,-8050
1721677378.059974,14,-44,1051,-2318,6755,-7263
1721677378.069224,11,-35,1056,-1732,7035,-6467
1721677378.078474,14,-39,1062,-1391,7148,-5592
1721677378.087724,42,-33,1060,-918,7192,-4979
1721677378.096974,39,-25,1053,-420,6956,-3273
1721677378.106224,25,-44,1055,219,6361,-587
1721677378.115479,34,-55,1051,674,5722,1767,-21319,18493,74194,84550,33260, 157399.000, 40.0103365,-105.2442355, 1598.099,1619.427, 4.411,3.883
1721677378.124729,39,-80,1042,1033,5153,2388
1721677378.133979,51,-68,1035,1287,4480,1076
1721677378.143229,58,-55,1036,1313,3762,-832
1721677378.152479,40,-48,1040,1505,2966,-2862
1721677378.161729,84,-76,1036,1925,2248,-5075
1721677378.170979,63,-71,1036,2372,1496,-6458
1721677378.180229,37,-71,1038,2433,288,-7849
1721677378.189484,36,-54,1040,2643,-543,-8182,-21209,18585,74182,,, 157399.100, 40.0103366,-105.2442354, 1598.111,1619.439, 4.406,3.878
1721677378.198734,20,-55,1040,2897,-989,-7963
1721677378.207984,11,-61,1039,3124,-1330,-6475
1721677378.217234,20,-62,1033,3098,-1357,-4612
1721677378.226484,21,-53,1030,2967,-1287,-2240
1721677378.235734,49,-66,1027,2827,-1217,-342
1721677378.244984,42,-55,1036,2713,-1182,437
1721677378.254234,20,-57,1040,2389,-1514,848
1721677378.263489,25,-56,1039,2337,-1663,822,-21282,18408,74176,84546,33262, 157399.200, 40.0103376,-105.2442353, 1598.176,1619.504, 4.400,3.873
1721677378.272739,40,-53,1032,2205,-1540,481
1721677378.281989,50,-61,1023,2135,-1409,61
1721677378.291239,45,-77,1016,2135,-1497,332
1721677378.300489,42,-96,1016,2153,-1803,647
1721677378.309739,20,-123,1024,1952,-1934,367
1721677378.318989,17,-117,1028,1532,-1890,-989
1721677378.328239,31,-91,1023,814,-1549,-2853
1721677378.337738,32,-81,1015,193,-1330,-3990,,,,84546,33262
1721677378.346988,27,-90,1015,-70,-1392,-3684
1721677378.356238,39,-83,1017,-157,-1540,-2757
1721677378.365488,56,-77,1013,-245,-1785,-1777
1721677378.374738,46,-99,1031,-210,-2249,-1409
1721677378.383988,50,-112,1037,-428,-3124,-1453
1721677378.393238,-6,-63,1047,-665,-3422,-1558
1721677378.402488,51,-47,1040,-1155,-3920,-2748
1721677378.411499,30,-77,1043,-1015,-3693,-665,-21417,18481,74023,84542,33265, 157399.300, 40.0103385,-105.2442355, 1598.247,1619.575, 4.395,3.869
1721677378.420749,26,-46,1038,-883,-3833,-368
1721677378.429999,31,-50,1042,-1155,-4060,-902
1721677378.439249,11,-53,1046,-936,-4183,-639
1721677378.448499,7,-55,1043,-805,-4270,-97
1721677378.457749,-4,-58,1037,-691,-4227,253
1721677378.466999,3,-61,1031,-455,-4052,472
1721677378.476249,29,-69,1030,-166,-3798,752
1721677378.485504,21,-64,1038,27,-3649,455,-21588,18627,73840,,, 157399.400, 40.0103390,-105.2442354, 1598.287,1619.615, 4.390,3.864
1721677378.494754,-42,-37,1055,342,-3807,-770
1721677378.504004,68,-160,1016,840,-3815,-1225
1721677378.513254,-4,-30,1001,1339,-2853,-1357
1721677378.522504,0,-55,976,499,-3282,-3789
1721677378.531754,18,-56,978,998,-3684,551
1721677378.541004,-5,-67,990,1120,-3912,2371
1721677378.550254,-3,-82,1003,1050,-4087,3351
1721677378.559570,0,-83,1014,945,-3772,4112,-21881,18597,73712,84540,33273, 157399.500, 40.0103399,-105.2442355, 1598.340,1619.668, 4.387,3.861
1721677378.568820,-5,-85,1020,665,-3640,3858
1721677378.578070,-4,-93,1019,315,-3632,2590
1721677378.587320,0,-80,1012,0,-3570,1347
1721677378.596570,20,-57,1008,-306,-3623,-44
1721677378.605820,13,-61,1014,-227,-3903,-692
1721677378.615070,8,-49,1021,-17,-4367,-595
1721677378.624320,8,-46,1023,-61,-4839,-377
1721677378.633576,-1,-41,1020,0,-5320,192,-22265,18426,73510,84546,33273
1721677378.642826,-5,-41,1014,88,-5574,936
1721677378.652076,-22,-52,1010,412,-5522,2240
1721677378.661326,-24,-65,1007,954,-5285,3141
1721677378.670576,-14,-66,1005,1392,-4839,2870
1721677378.679826,-8,-72,1003,1619,-4402,2275
1721677378.689076,-5,-83,1003,1785,-4087,1662
1721677378.698326,0,-79,1004,1864,-3955,472
1721677378.707611,4,-70,1007,1794,-3850,-595,,,,84543,33280, 157399.600, 40.0103405,-105.2442356, 1598.381,1619.709, 4.384,3.858
1721677378.716861,0,-70,1007,1575,-3894,-980
1721677378.726111,-14,-73,1010,1567,-3894,-788
1721677378.735361,-17,-76,1010,1339,-3745,-385
1721677378.744611,-13,-79,1009,919,-3474,-62
1721677378.753861,-13,-81,1007,455,-3150,358
1721677378.763111,-15,-80,1005,105,-2757,682
1721677378.772361,3,-82,1001,-17,-2302,315
1721677378.781616,355,-301,977,44,-1785,-508,-22467,18212,73211,,, 157399.700, 40.0103416,-105.2442357, 1598.459,1619.787, 4.381,3.855
1721677378.790866,-40,199,1045,-1041,-2853,-6423
1721677378.800116,-8,-21,1005,-1968,-5837,-8707
1721677378.809366,-16,-64,981,2573,-4883,3167
1721677378.818616,-17,-131,991,3632,-3815,4996
1721677378.827866,-56,-73,1017,3343,-3115,5188
1721677378.837116,-23,-75,1030,2284,-2162,4690
1721677378.846366,-36,-98,1037,1785,-805,7428
1721677378.855621,-55,-139,1047,1260,210,7498,-22644,18066,73138,84543,33289, 157399.800, 40.0103428,-105.2442358, 1598.541,1619.869, 4.378,3.852
1721677378.864871,-32,-142,1054,578,1268,4550
1721677378.874121,-4,-112,1062,-437,2520,542
1721677378.883371,-33,-87,1069,-1548,3246,-2958
1721677378.892621,26,-148,1063,-2143,3561,-5285
1721677378.901871,-38,-93,1024,-2196,4401,-6537
1721677378.911121,-56,-16,997,-2598,4987,-8943
1721677378.920371,14,-55,993,-1802,5670,-7823
1721677378.929627,-46,-69,1018,-140,6335,-6020,-22216,18304,73468,84544,33291
1721677378.938877,-48,-75,1047,403,6046,-5277
1721677378.948127,-30,-77,1070,377,6256,-3159
1721677378.957377,0,-84,1077,219,6448,-2179
1721677378.966627,13,-69,1066,140,6072,-2135
1721677378.975877,2,-54,1056,149,5075,-1978
1721677378.985127,20,-64,1046,604,3902,-875
1721677378.994377,16,-64,1040,1234,2957,-97
1721677379.003632,17,-76,1031,1549,1785,341,-22137,18298,73413,84544,33291, 157399.900, 40.0103432,-105.2442358, 1598.599,1619.927, 4.374,3.848
1721677379.012882,15,-81,1019,1777,735,402
1721677379.022132,15,-81,1007,1943,-62,-158
1721677379.031382,9,-77,999,2092,-875,-683
1721677379.040632,1,-70,992,2170,-1619,-1059
1721677379.049882,2,-64,992,2197,-2380,-1129
1721677379.059132,3,-52,997,2398,-3063,-1120
1721677379.068382,-2,-48,1007,2783,-3684,-464
1721677379.077637,-5,-50,1012,3229,-4332,350,-22460,17974,73266,,, 157400.000, 40.0103451,-105.2442360, 1598.742,1620.070, 4.371,3.845
1721677379.086887,-14,-61,1010,3483,-4883,367
1721677379.096137,-29,-83,1004,3675,-5285,490
1721677379.105387,-39,-92,997,3929,-5390,1076
1721677379.114637,-41,-96,992,3824,-5075,1706
1721677379.123887,-33,-89,989,3544,-4629,1933
1721677379.133137,-12,-103,988,3325,-4183,1942
1721677379.142387,876,-765,1042,2984,-3789,2047
1721677379.151642,-597,555,1102,-595,-6519,-6458,,,,84548,33311, 157400.100, 40.0103466,-105.2442361, 1598.856,1620.184, 4.369,3.843
1721677379.160892,44,-75,1008,-5958,-12557,-16512
1721677379.170142,214,-218,1004,3037,-6318,6702
1721677379.179392,-104,-184,1014,3483,-5845,875
1721677379.188642,-160,-134,1030,525,-7797,-7385
1721677379.197892,-131,-23,990,-1146,-5933,-4953
1721677379.207142,-91,-82,970,-1295,-2853,2073
1721677379.216392,-120,-105,971,-743,-473,4847
1721677379.225678,-149,-92,994,-901,1557,6335,-22711,17968,72985,84544,33311
1721677379.234928,-103,-76,1027,-1435,3780,7918
1721677379.244178,-66,-88,1048,-1802,6081,6746
1721677379.253428,-61,-98,1057,-2406,7437,2625
1721677379.262678,-9,-84,1049,-2887,7761,-1077
1721677379.271928,11,-58,1038,-3018,7673,-3273
1721677379.281178,4,-61,1033,-2905,6851,-4349
1721677379.290428,19,-69,1031,-2231,5775,-3448
1721677379.299683,4,-57,1034,-1417,4935,-1785,-22375,18109,73345,84550,33322, 157400.200, 40.0103483,-105.2442364, 1598.935,1620.263, 4.367,3.841
1721677379.308933,-3,-51,1038,-770,4068,595
1721677379.318183,30,-76,1035,79,3622,3053
1721677379.327433,14,-80,1032,788,3141,4900
1721677379.336683,22,-105,1023,1243,2240,6195
1721677379.345933,15,-106,1017,1488,1426,6440
1721677379.355183,25,-109,1021,1365,533,5188
1721677379.364433,20,-103,1025,1208,-482,3543
1721677379.373688,28,-110,1023,1050,-1575,2143,-22558,18096,73284,,, 157400.300, 40.0103492,-105.2442363, 1599.036,1620.364, 4.367,3.839
1721677379.382938,22,-109,1023,840,-2450,1522
1721677379.392188,-2,-116,1027,569,-3352,603
1721677379.401438,-5,-105,1041,490,-3903,1120
1721677379.410688,-1,-61,1043,412,-3850,2231
1721677379.419938,-27,-75,1036,455,-3597,2187
1721677379.429188,2,-103,1021,788,-3352,17
1721677379.438438,-6,-106,1013,858,-2949,-1549
1721677379.447693,198,-208,994,482,-3028,-2249,-22814,18212,73077,84548,33313
1721677379.456943,214,-215,1009,184,-2967,-3212
1721677379.466193,-240,83,1039,-2817,-7140,-11192
1721677379.475443,53,-159,949,-2721,-8304,-5933
1721677379.484693,14,-86,914,-52,-4848,-3675
1721677379.493943,27,-75,924,-997,-4769,-6939
1721677379.503193,-92,-56,986,-770,-4699,-4638
1721677379.512443,-69,-77,1017,-463,-4393,-1960
1721677379.521698,-82,-117,1033,-411,-2835,-158,,,,84547,33315, 157400.400, 40.0103497,-105.2442362, 1599.077,1620.405, 4.366,3.838
1721677379.530948,-122,-112,1050,-883,-1348,455
1721677379.540198,-122,-116,1053,-1793,-193,1391
1721677379.549448,-92,-122,1042,-2983,1198,813
1721677379.558698,-121,-69,1036,-4436,2423,-2013
1721677379.567948,-5,-57,1023,-5092,3395,-2538
1721677379.577198,-26,-31,1019,-4978,4427,-3754
1721677379.586448,-57,-70,1014,-4532,4191,-5040
1721677379.595703,-28,-100,1009,-3325,4278,-5242,-22692,18572,73095,84545,33326, 157400.500, 40.0103501,-105.2442361, 1599.114,1620.442, 4.365,3.836
1721677379.604953,-34,-72,1009,-2572,4690,-5592
1721677379.614203,-39,-42,1021,-2108,4926,-5985
1721677379.623453,-18,-49,1039,-1365,5171,-5977
1721677379.632703,28,-71,1047,-78,5512,-6082
1721677379.641953,31,-56,1047,674,5390,-6659
1721677379.651203,22,-59,1047,840,4462,-6370
1721677379.660453,9,-70,1046,1077,3482,-3973
1721677379.669708,18,-93,1037,1392,2686,-53,-22387,18609,73236,,, 157400.600, 40.0103507,-105.2442361, 1599.197,1620.525, 4.364,3.834
1721677379.678958,3,-102,1027,1400,2021,3491
1721677379.688208,13,-115,1014,1007,1347,5635
1721677379.697458,26,-111,1010,700,918,6308
1721677379.706708,31,-93,1016,350,358,5897
1721677379.715958,6,-100,1021,123,-298,5110
1721677379.725208,5,-123,1021,202,-744,4401
1721677379.734458,9,-112,1024,-1522,-385,4068
1721677379.743714,-16,-91,1032,-1697,-412,4208,-22558,18505,73138,84543,33326
1721677379.752964,-40,7,1043,-428,-779,4576
1721677379.762214,670,-506,1001,-323,-560,3106
1721677379.771464,-328,77,1024,-1111,-2319,-5968
1721677379.780714,-61,-30,956,-4891,-8960,577
1721677379.789964,29,-151,920,-1522,-4804,4375
1721677379.799214,28,-75,946,-918,-2678,-10054
1721677379.808464,4,-94,987,-1575,-2687,997
1721677379.817719,-44,-121,1026,-1732,-2765,5775,-22595,18792,73034,84538,33332, 157400.700, 40.0103524,-105.2442363, 1599.355,1620.683, 4.355,3.827
1721677379.826969,-91,-151,1072,-2502,-2485,3893
1721677379.836219,-165,-140,1081,-3745,-1812,-1234
1721677379.845469,-182,-170,1096,-5433,-254,-5303
1721677379.854719,-7,-69,1071,-7236,1916,-5714
1721677379.863969,-31,-34,1063,-9590,3578,-2424
1721677379.873219,-16,-27,1059,-8365,2800,6291
1721677379.882469,-10,-30,1054,-7603,2353,11865
1721677379.891754,-17,-47,1056,-6825,1925,14743,-22436,19378,72833,84544,33332, 157400.800, 40.0103535,-105.2442365, 1599.461,1620.789, 4.345,3.821
1721677379.901004,10,-129,1058,-6107,1417,11173
1721677379.910254,7,-68,1061,-5538,1251,5110
1721677379.919504,34,196,1075,-5565,1067,1006
1721677379.928754,170,134,1093,-4593,892,-7490
1721677379.938004,224,-227,1100,-717,-18,-33277
1721677379.947254,-101,-275,1084,2459,-2232,-45964
1721677379.956504,-506,-146,1099,1322,-5452,-44328
