;Title, http://www.gcdataconcepts.com, LSM6DSM, BMP384, GPS
;Version, 2585, Build date, Feb  9 2024,  SN:CCDC2023A912FC8
;Start_time, 2024-07-22, 18:33:37.168
;Uptime, 5,sec,  Vbat, 4100, mv, EOL, 3500, mv
;Deadband, 0, counts
;DeadbandTimeout, 0.000,sec
;BMP384, SI, 0.100,sec, Units, Pa, mdegC
;Alt Trigger disabled
;LSM6DSM, SR,104,Hz, Units, mG, mdps, fullscale gyro 250dps, accel 4g
;Magnetometer, SR,10,Hz, Units, nT, Temperature, 25,degC
;CAM_M8 Gps, SR,10,Hz
;Gps Sats, TOW, 153231000, ver, 1, numSat, 19
;, gnssId, svId, cno, elev, azmith, prRes, flags,inUse
;, GPS, 005, 00, 15, 059, 0, 0x00001911
;, GPS, 010, 00, 23, 249, 0, 0x00001910
;, GPS, 013, 00, 30, 052, 0, 0x00001911
;, GPS, 015, 00, 57, 079, 0, 0x00001211
;, GPS, 016, 00, 15, 293, 0, 0x00001910
;, GPS, 018, 00, 73, 006, 0, 0x00001910
;, GPS, 023, 00, 56, 266, 0, 0x00001910
;, GPS, 024, 00, 06, 131, 0, 0x00001211
;Time, Ax, Ay, Az, Gx, Gy, Gz, Mx, My, Mz, P, T, TOW, Lat,Lon, Height(m), MSL(m), hdop(m), vdop(m)
1721673217.231779,1012,-59,64,26355,15487,-31457,62847,-16009,16516,84525,33109, 153233.300, 40.0180228,-105.2489167, 2316.715,2338.039, 531002.048,375475.168
1721673217.241251,1041,-114,29,14132,8338,-6633
1721673217.250723,1002,-119,11,16477,6247,-12977
1721673217.260195,842,-126,114,17789,3395,-17982
1721673217.269667,964,-58,36,18419,2896,-20650
1721673217.279139,805,-102,123,19049,6203,-22444
1721673217.288611,980,-160,72,20388,9161,-26277
1721673217.298083,1077,-249,54,20572,14227,-27624
1721673217.696076,1079,-320,65,21403,16310,-22120,62219,-16510,15325,84527,33111
1721673217.705547,1105,-295,33,20397,14945,-15199
1721673217.715018,1050,-223,53,15190,12661,-8505
1721673217.724489,995,-153,117,9407,8531,-3150
1721673217.733960,986,-97,120,6125,4655,-438
1721673217.743431,1009,-113,111,5985,2563,1487
1721673217.752902,1038,-144,99,7884,376,3036
1721673217.762373,1085,-203,51,9205,-1575,4068
1721673217.771851,1062,-282,49,9433,-4017,4007,,,,84521,33111
1721673217.781322,1047,-281,32,8199,-7315,5206
1721673217.790793,1008,-249,20,5469,-10395,8321
1721673217.800264,922,-173,95,3089,-13992,10587
1721673217.809735,846,-107,112,1672,-15374,10797
1721673217.819206,773,-41,138,2695,-12539,10237
1721673217.828677,831,18,62,6642,-5740,9975
1721673217.838148,804,26,92,12294,3841,8531
1721673217.847626,804,-95,98,19189,12188,4173,62579,-15631,15222,84530,33116
1721673217.857097,907,-209,-9,25043,21131,-2800
1721673217.866568,984,-280,-116,25717,28507,-7035
1721673217.876039,998,-357,-118,20957,29557,-13169
1721673217.885510,1015,-273,-91,14202,26836,-22015
1721673217.894981,964,-167,13,9214,23493,-26180
1721673217.904452,1047,-82,88,8173,19066,-30293
1721673217.913923,1064,-70,151,10299,15855,-32498
1721673217.923401,1072,-112,124,15558,10753,-28403,61322,-16644,13336
1721673217.932872,986,-94,76,21193,3727,-21989
1721673217.942343,1022,-113,-2,25183,-2590,-19102
1721673217.951814,967,-168,48,29269,-6038,-22330
1721673217.961285,923,-160,50,32682,-6449,-29112
1721673217.970756,909,-113,25,34860,-2862,-34440
1721673217.980227,945,-117,47,37704,3920,-38938
1721673217.989698,890,-134,75,41440,10263,-44940
1721673217.999176,897,-129,81,44984,13343,-49333,59515,-18200,10937,84524,33114, 153237.000, 40.0180228,-105.2489167, 2316.715,2338.039, 10748.210,7600.133
1721673218.008647,930,-189,84,49280,14463,-49928
1721673218.018118,900,-207,91,54478,14262,-49762
1721673218.027589,851,-212,78,58713,12626,-49508
1721673218.037060,786,-250,49,61749,12136,-49928
1721673218.046531,764,-285,-1,64330,14411,-49963
1721673218.056002,844,-319,-21,66955,21070,-47557
1721673218.065473,948,-364,0,68662,29723,-43094
1721673218.074951,1044,-374,13,68128,36907,-39585,56848,-18524,6420,84530,33116, 153237.100, 40.0180228,-105.2489167, 2316.715,2338.039, 10748.216,7600.136
1721673218.084422,1117,-399,-22,65205,41370,-37249
1721673218.093893,1175,-485,-39,60524,42210,-36190
1721673218.103364,1055,-475,6,54443,39208,-35088
1721673218.112835,1121,-443,-22,47093,33267,-29593
1721673218.122306,1170,-460,-77,40049,28035,-19915
1721673218.131777,1214,-532,-91,32769,21490,-11524
1721673218.141248,1217,-524,-101,24483,11681,-3920
1721673218.150726,1118,-406,-141,14928,-228,4497,58215,-16540,7031,84524,33125, 153237.200, 40.0180228,-105.2489167, 2316.715,2338.039, 10748.224,7600.141
1721673218.160197,968,-359,-43,5408,-12679,10185
1721673218.169668,868,-356,9,-437,-22190,15435
1721673218.179139,802,-325,-34,-4200,-27134,25191
1721673218.188610,764,-274,-40,-9397,-28482,37353
1721673218.198081,691,-280,-11,-14621,-27213,49315
1721673218.207552,717,-229,26,-18296,-23564,62265
1721673218.217023,832,-135,43,-20606,-17500,79441
1721673218.226532,1102,-62,36,-21236,-10815,95480,,,,84526,33136
1721673218.236003,1330,-30,73,-19818,-6720,103468
1721673218.245474,1440,-248,84,-16633,-7998,96486
1721673218.254945,1410,-67,77,-10902,-13458,83991
1721673218.264416,1383,-90,32,-4812,-22742,76378
1721673218.273887,1311,-187,-32,3842,-34685,61031
1721673218.283358,1144,-214,0,11568,-44844,47495
1721673218.292829,1038,-148,0,15698,-50540,41072
1721673218.302307,979,-176,44,16100,-49797,35332,61145,-11968,8532,,, 153237.300, 40.0180228,-105.2489167, 2316.715,2338.039, 10748.230,7600.146
1721673218.311778,858,-211,88,15225,-44625,29496
1721673218.321249,779,-171,88,12662,-35552,28393
1721673218.330720,797,-162,36,9205,-25192,29347
1721673218.340191,1134,-179,-44,7237,-13773,28857
1721673218.349662,1299,-302,-60,6265,-4515,26976
1721673218.359133,1379,-441,-59,5110,-4218,21113
1721673218.368604,1301,-479,-69,1750,-11673,10920
1721673218.378082,1295,-413,-118,-4891,-23809,96,62365,-10809,10168,84523,33129, 153237.400, 40.0180228,-105.2489167, 2316.715,2338.039, 10748.238,7600.152
1721673218.387553,1170,-404,-106,-12521,-36278,-7079
1721673218.397024,1141,-374,-32,-18331,-47522,-10080
1721673218.406495,1104,-245,26,-23765,-53699,-9818
1721673218.415966,1025,-77,58,-30537,-56079,-9092
1721673218.425437,613,108,-103,-36750,-55860,-11078
1721673218.434908,454,146,-27,-35210,-52535,-2704
1721673218.444379,747,94,122,-23362,-43987,26215
1721673218.453888,1018,55,106,-12608,-36785,49857,64532,-9326,13793,84527,33138, 153237.500, 40.0180228,-105.2489167, 2316.715,2338.039, 10748.248,7600.158
1721673218.463359,1059,24,28,-9948,-36785,55571
1721673218.472830,1032,9,-39,-10097,-41554,53978
1721673218.482301,1086,-130,-57,-7752,-45728,51913
1721673218.491772,1103,-253,-88,-3132,-47399,47083
1721673218.501243,1076,-262,-5,-857,-47688,36645
1721673218.510714,938,-156,-56,-428,-46944,26783
1721673218.520185,852,-156,-80,2617,-46034,21166
1721673218.529663,752,-195,-142,8689,-44153,16003,65698,-7995,16271,84531,33141
1721673218.539134,926,-216,-112,14473,-39559,13116
1721673218.548605,1110,-270,-37,18410,-31684,10683
1721673218.558076,1127,-280,14,19425,-26382,490
1721673218.567547,1048,-195,73,20817,-26014,-4489
1721673218.577018,807,-237,37,23022,-27869,-9590
1721673218.586489,855,-246,113,25393,-27003,-17833
1721673218.595960,912,-168,140,28473,-22899,-9319
1721673218.605438,821,-202,137,30013,-22015,-490,66247,-4174,15301,,, 153237.600, 40.0180228,-105.2489167, 2316.715,2338.039, 10748.256,7600.165
1721673218.614909,808,-270,126,28805,-22392,-6335
1721673218.624380,233,-12,-64,26040,-17684,-6178
1721673218.633851,-349,-172,-83,22812,-9634,4025
1721673218.643322,363,-653,469,22278,6930,27405
1721673218.652793,293,-360,219,17955,27116,62221
1721673218.662264,688,149,-141,2092,40363,109357
1721673218.671735,769,99,-140,-13168,52036,127723
1721673218.681214,1007,-116,5,-21603,53077,113347,,,,84531,33141, 153237.700, 40.0180228,-105.2489167, 2316.715,2338.039, 10748.268,7600.173
1721673218.690685,1375,-18,48,-26372,49787,93283
1721673218.700156,1677,61,100,-29006,46033,83020
1721673218.709627,1918,122,88,-29487,39287,60690
1721673218.719098,1996,142,61,-28840,29067,21551
1721673218.728569,1826,81,15,-26976,12328,-23013
1721673218.738040,1281,207,-58,-24106,-10605,-75285
1721673218.747511,124,441,102,-21962,-30415,-122334
1721673218.756989,220,405,244,-14927,-33784,-137944,65673,-6390,14886,84529,33150, 153237.800, 40.0180228,-105.2489167, 2316.715,2338.039, 10748.278,7600.180
1721673218.766460,742,183,158,-210,-13922,-122868
1721673218.775931,1159,-53,136,9328,3631,-102962
1721673218.785402,1337,-453,38,9800,7262,-89294
1721673218.794873,1290,-498,-36,7622,-3002,-71138
1721673218.804344,1361,-341,123,5574,-24894,-45527
1721673218.813815,1149,-305,134,9459,-49359,-21070
1721673218.823286,952,-322,138,18087,-66614,-1357
1721673218.832764,951,-347,154,24509,-70709,17395,66412,-6860,17639,84528,33145
1721673218.842235,923,-327,158,24387,-65345,28428
1721673218.851706,1107,-335,154,19119,-55475,32865
1721673218.861177,1252,-348,222,10579,-43532,29977
1721673218.870648,1337,-310,237,-1111,-34432,18340
1721673218.880119,1405,-254,233,-14490,-28814,376
1721673218.889590,1393,-165,293,-26783,-26250,-22540
1721673218.899061,1236,-90,335,-35096,-27012,-46804
1721673218.908539,984,-102,333,-37677,-31273,-66710,66351,-9808,20648,,, 153237.900, 40.0180228,-105.2489167, 2316.715,2338.039, 10748.290,7600.189
1721673218.918010,716,-46,322,-32436,-37328,-79494
1721673218.927481,563,16,331,-18418,-41178,-71917
1721673218.936952,513,-26,324,-717,-39962,-51214
1721673218.946423,610,-122,276,12049,-33618,-30722
1721673218.955894,810,-179,208,15759,-23424,-13047
1721673218.965365,996,-215,167,11445,-12697,-937
1721673218.974836,1080,-247,172,2547,-5014,-114
1721673218.984314,1034,-238,176,-8093,-1969,-8392,66290,-10656,21728,84524,33154, 153238.000, 40.0180228,-105.2489167, 2316.715,2338.039, 10748.302,7600.198
1721673218.993785,940,-208,158,-17718,-3492,-16144
1721673219.003256,807,-205,158,-23388,-7980,-20405
1721673219.012727,682,-153,202,-24167,-12067,-19670
1721673219.022198,621,-115,237,-22811,-12609,-14324
1721673219.031669,620,-117,234,-21770,-8427,-10142
1721673219.041140,756,-63,245,-21175,-324,-7692
1721673219.050611,878,-86,298,-20247,9432,-4743
1721673219.060089,924,-108,303,-18471,16983,-3229,,,,84535,33159, 153238.100, 40.0180228,-105.2489167, 2316.715,2338.039, 10748.316,7600.207
1721673219.069560,946,-76,289,-16835,18970,-4095
1721673219.079031,966,-48,327,-14446,17263,-6703
1721673219.088502,962,-62,352,-10657,15522,-9870
1721673219.097973,934,-86,333,-6553,14175,-12355
1721673219.107444,926,-93,305,-2633,12302,-13738
1721673219.116915,898,-127,304,1120,10596,-14683
1721673219.126386,838,-150,304,3597,9467,-15934
1721673219.135864,748,-150,282,3588,9563,-14368,65863,-11480,21038,84520,33159
1721673219.145335,670,-118,278,832,11760,-9293
1721673219.154806,732,-162,174,-3123,16441,-2302
1721673219.164277,735,-470,-144,-6457,23327,5670
1721673219.173748,953,-421,0,-10876,31736,10815
1721673219.183219,1104,-426,34,-19740,42393,17928
1721673219.192690,1163,-290,151,-31325,43321,5346
1721673219.202161,1321,30,283,-37380,39637,-1085
1721673219.211640,1367,107,338,-31167,29172,7385,65618,-11486,19750,,, 153238.200, 40.0180228,-105.2489167, 2316.715,2338.039, 10748.330,7600.217
1721673219.221111,1223,2,300,-15968,13798,5643
1721673219.230582,973,-87,293,-1251,621,-3728
1721673219.240053,815,-138,330,8015,-4515,-15208
1721673219.249524,757,-144,274,13598,-1733,-22777
1721673219.258995,736,-231,263,17037,4943,-24369
1721673219.268466,797,-318,259,18060,11130,-21000
1721673219.277937,860,-343,253,16144,15417,-14237
1721673219.287415,985,-304,230,11437,18620,-6055,65191,-11730,18572,84527,33170, 153238.300, 40.0180228,-105.2489167, 2316.715,2338.039, 10748.346,7600.227
1721673219.296886,1100,-332,213,6020,22566,2091
1721673219.306357,1178,-349,165,1934,26258,9423
1721673219.315828,1183,-259,137,-1548,25243,13562
1721673219.325299,1013,-213,208,-4926,21822,12643
1721673219.334770,975,-162,217,-6055,18348,7717
1721673219.344241,919,-144,223,-4900,16948,4208
1721673219.353712,967,-141,165,-3928,16371,1636
1721673219.363190,1017,-184,238,-4751,14148,-989,65039,-11846,18164,84526,33168, 153238.400, 40.0180228,-105.2489167, 2316.715,2338.039, 10748.360,7600.239
1721673219.372661,937,-168,214,-8050,10316,-3063
1721673219.382132,1046,-102,218,-13711,7761,-2695
1721673219.391603,1044,-99,175,-17788,7463,-1890
1721673219.401074,915,-115,210,-19713,6142,-2704
1721673219.410545,821,-152,189,-22181,4838,-3614
1721673219.420016,1033,-160,131,-24710,7761,-3693
1721673219.429487,797,-362,231,-26521,13833,-5259
1721673219.438996,833,-239,137,-26538,16511,-8120,64642,-12548,18243,84529,33170
1721673219.448467,1132,-359,106,-26092,18278,-1882
1721673219.457938,1111,-235,172,-22802,16030,-2057
1721673219.467409,1055,-216,109,-18698,8977,-2827
1721673219.476880,944,-180,149,-16852,3797,-4883
1721673219.486351,923,-147,139,-17753,78,-7595
1721673219.495822,888,-165,260,-19670,-359,-8304
1721673219.505293,1012,-194,78,-20886,1837,-8575
1721673219.514771,956,-142,169,-22758,3185,-9030,,,,,, 153238.500, 40.0180228,-105.2489167, 2316.715,2338.039, 10748.378,7600.250
1721673219.524242,879,-84,254,-24780,3193,-8435
1721673219.533713,967,-54,157,-25305,4226,-9870
1721673219.543184,876,-73,310,-24193,7542,-12110
1721673219.552655,734,-100,223,-22050,9362,-13108
1721673219.562126,997,-196,163,-18996,12250,-13012
1721673219.571597,865,-216,148,-16152,18007,-13309
1721673219.581068,965,-187,183,-13816,20238,-12215
1721673219.590546,976,-206,276,-11480,23598,-12347,64080,-13867,17852,84531,33170, 153238.600, 40.0180228,-105.2489167, 2316.715,2338.039, 10748.394,7600.262
1721673219.600017,953,-201,188,-9607,25506,-12898
1721673219.609488,986,-157,219,-7910,25803,-13283
1721673219.618959,983,-157,243,-4550,28796,-12364
1721673219.628430,962,-174,180,114,29986,-11174
1721673219.637901,936,-217,234,4052,30327,-9065
1721673219.647372,1051,-212,61,6887,30931,-4743
1721673219.656843,984,-213,160,9275,31062,376
1721673219.666321,925,-149,23,10177,29898,4593,63171,-14398,15582,84528,33186, 153238.700, 40.0180228,-105.2489167, 2316.715,2338.039, 10748.412,7600.275
1721673219.675792,1144,-180,-47,9162,29758,4165
1721673219.685263,1124,-237,23,8042,30555,-3089
1721673219.694734,1040,-149,124,7919,24990,-5040
1721673219.704205,1016,-127,126,7902,19941,-5994
1721673219.713676,943,-147,141,9625,17622,-8313
1721673219.723147,951,-223,81,12574,17325,-8120
1721673219.732618,928,-293,74,14954,18733,-6318
1721673219.742096,923,-252,79,16923,21236,3386,62658,-13751,13122,84533,33181, 153238.800, 40.0180228,-105.2489167, 2316.715,2338.039, 10748.430,7600.288
1721673219.751567,1052,-239,14,20370,26110,12600
1721673219.761038,1058,-242,40,22304,30161,10202
1721673219.770509,1136,-310,102,23468,30021,13098
1721673219.779980,840,-292,300,24448,29505,17972
1721673219.789451,1212,-211,108,23258,26600,19862
1721673219.798922,1174,-103,68,20467,26862,25672
1721673219.808393,1115,24,-107,20939,24106,27685
1721673219.817871,950,-368,246,22969,18278,25226,62615,-12304,11901
1721673219.827342,952,-159,241,24063,8330,7008
1721673219.836813,1066,-119,112,22750,7875,15242
1721673219.846284,981,-204,55,20738,6711,8977
1721673219.855755,946,-209,-7,16853,778,3447
1721673219.865226,882,-201,-6,10352,-3999,-35
1721673219.874697,935,-212,-42,4970,-10614,-6265
1721673219.884168,964,-237,-24,1164,-16013,-14630
1721673219.893646,952,-246,33,-2371,-20152,-27458,,,,84530,33179, 153238.900, 40.0180228,-105.2489167, 2316.715,2338.039, 10748.450,7600.302
1721673219.903117,915,-273,81,-5626,-23415,-38509
1721673219.912588,888,-220,71,-6308,-22899,-40767
1721673219.922059,882,-224,141,-5941,-18183,-41082
1721673219.931530,987,-230,81,-4698,-13082,-40924
1721673219.941001,888,-268,210,-3062,-6029,-35972
1721673219.950472,843,-288,290,-1872,-2485,-33242
1721673219.959943,1001,-220,165,-1443,26,-30949
1721673219.969422,955,-239,141,692,5626,-22243,61920,-14685,12597,84525,33184, 153239.000, 40.0180228,-105.2489167, 2316.715,2338.039, 10748.470,7600.316
1721673219.978893,882,-238,55,4148,9170,-15059
1721673219.988364,826,-243,37,5644,13230,-12084
1721673219.997835,896,-289,43,5705,18585,-10334
1721673220.007306,986,-300,22,5959,23948,-5714
1721673220.016777,1144,-251,25,6712,26906,236
1721673220.026248,1049,-238,62,7097,25742,5748
1721673220.035719,1007,-188,36,7333,21691,8023
1721673220.045197,920,-176,25,7665,20597,9537,61151,-14520,10839,84533,33191, 153239.100, 40.0180228,-105.2489167, 2316.715,2338.039, 10748.490,7600.330
1721673220.054668,856,-153,33,9144,22032,10911
1721673220.064139,903,-168,-17,11192,26337,12871
1721673220.073610,896,-189,-29,13467,31832,15006
1721673220.083081,885,-151,0,14770,35376,13650
1721673220.092552,830,-104,18,15567,36960,7866
1721673220.102023,820,-239,-76,17544,39235,-569
1721673220.111494,975,-294,-40,18043,41965,-9083
1721673220.120972,1088,-330,-127,16170,45158,-12609,59454,-14434,7324
1721673220.130443,1112,-341,-128,14027,46742,-21210
1721673220.139914,1093,-453,-31,9739,45876,-17422
1721673220.149385,963,-364,-85,5635,45202,-9555
1721673220.158856,1056,-325,-134,1155,52465,875
1721673220.168327,1057,-202,-357,-1741,65091,6431
1721673220.177798,1000,-366,-266,-3045,75530,11786
1721673220.187269,936,-447,-335,-437,84603,9590
1721673220.196778,1032,-154,-579,674,93257,-2783,54461,-16625,1727,84525,33193, 153239.200, 40.0180228,-105.2489167, 2316.715,2338.039, 10748.512,7600.345
1721673220.206249,681,-414,-264,5014,105770,-41300
1721673220.215720,931,-376,-202,2459,107432,-80273
1721673220.225191,1001,-294,-35,-15697,103407,-81157
1721673220.234662,1173,-247,-18,-23178,89512,-71243
1721673220.244133,1373,-264,-159,-18147,64890,-47609
1721673220.253604,1249,-202,26,-7770,32646,-24868
1721673220.263075,1135,-168,-79,814,437,-9205
1721673220.272553,976,-291,-29,3404,-21578,-8470,55841,-15716,2801,84529,33202, 153239.300, 40.0180228,-105.2489167, 2316.715,2338.039, 10748.534,7600.361
1721673220.282024,904,-180,96,2162,-33145,-11682
1721673220.291495,763,-339,122,560,-45037,-3115
1721673220.300966,836,-348,74,622,-49447,1216
1721673220.310437,894,-212,24,840,-47338,19066
1721673220.319908,777,-274,132,3185,-45229,34273
1721673220.329379,812,-234,-9,10999,-39174,46742
1721673220.338850,918,-232,-93,16608,-26399,55405
1721673220.348328,933,-259,-117,19189,-12592,53935,,,,84526,33200, 153239.400, 40.0180228,-105.2489167, 2316.715,2338.039, 10748.558,7600.378
1721673220.357799,1094,-256,-181,19915,-3719,47801
1721673220.367270,1120,-309,-165,17894,1715,42411
1721673220.376741,1138,-305,-304,14823,446,36697
1721673220.386212,1070,-388,-280,12145,-5539,27378
1721673220.395683,863,-377,-224,11227,-13624,10955
1721673220.405154,830,-365,-223,8864,-21490,-114
1721673220.414625,920,-416,-392,5758,-24553,-4183
1721673220.424133,874,-418,-218,797,-24010,-5329,56799,-13891,2856
1721673220.433605,1053,-400,-411,-9178,-25183,-1120
1721673220.443077,932,-366,-239,-19617,-26758,5083
1721673220.452549,813,-278,-75,-25978,-29488,10456
1721673220.462021,951,-260,-105,-31893,-29225,14665
1721673220.471493,875,-306,-20,-34536,-26032,16353
1721673220.480965,1066,-241,-110,-33153,-22383,11865
1721673220.490437,934,-210,0,-30765,-16354,2126
1721673220.499909,855,-201,40,-24762,-14875,-7245,57452,-14721,4577,84532,33209, 153239.500, 40.0180228,-105.2489167, 2316.715,2338.039, 10748.580,7600.394
1721673220.509380,1006,-175,-123,-17683,-12312,-14613
1721673220.518851,1280,-102,-366,-12005,-10229,-20370
1721673220.528322,691,-259,168,-8067,-11647,-24133
1721673220.537793,979,-175,-62,-7437,-22383,-30678
1721673220.547264,948,-264,-26,-4593,-24124,-14499
1721673220.556735,925,-255,-157,2354,-22479,-4323
1721673220.566206,740,-305,-83,4437,-16652,5862
1721673220.575684,929,-274,-165,5320,-10177,11585,57415,-14849,4553,84527,33215, 153239.600, 40.0180228,-105.2489167, 2316.715,2338.039, 10748.604,7600.412
1721673220.585155,786,-254,-106,4043,-779,12477
1721673220.594626,853,-227,-164,3054,6440,7516
1721673220.604097,925,-281,-116,2704,16100,2231
1721673220.613568,955,-256,-119,4069,20947,-3850
1721673220.623039,966,-278,-109,5592,22295,-9380
1721673220.632510,1011,-330,-135,7867,24071,-14910
1721673220.641981,1038,-368,-148,9205,23581,-17824
1721673220.651459,1064,-375,-136,7928,18733,-17203,56610,-14880,3564,84532,33218, 153239.700, 40.0180228,-105.2489167, 2316.715,2338.039, 10748.630,7600.429
1721673220.660930,1051,-370,-108,4507,11348,-11507
1721673220.670401,1031,-357,-101,-603,4095,-2512
1721673220.679872,1071,-324,-99,-5206,-744,5888
1721673220.689343,1020,-264,-90,-7280,-2135,11445
1721673220.698814,939,-269,-63,-6720,-1917,12713
1721673220.708285,907,-284,-69,-4497,-333,10972
1721673220.717756,893,-279,-66,-621,1942,10045
1721673220.727234,908,-290,-108,3693,4777,8155,56512,-14318,2862,84527,33215
1721673220.736705,914,-326,-159,7044,6956,7227
1721673220.746176,918,-307,-165,7718,6711,7420
1721673220.755647,923,-288,-154,5268,4217,9502
1721673220.765118,886,-285,-188,2319,1583,11453
1721673220.774589,953,-282,-223,-560,420,11436
1721673220.784060,874,-289,-187,-2800,1933,11908
1721673220.793531,937,-249,-147,-5827,3683,10211
1721673220.803040,958,-269,-101,-8601,5337,9607,,,,,, 153239.800, 40.0180228,-105.2489167, 2316.715,2338.039, 10748.656,7600.448
1721673220.812511,964,-265,-132,-9493,6790,7752
1721673220.821982,971,-287,-161,-11497,5932,5678
1721673220.831453,950,-327,-162,-12862,2450,1338
1721673220.840924,964,-290,-183,-13405,-2599,-1094
1721673220.850395,985,-328,-131,-12162,-7630,1610
1721673220.859866,961,-321,-72,-6387,-11340,2231
1721673220.869337,994,-288,-68,-3963,-12915,1347
1721673220.878815,1006,-280,-82,-4060,-13108,647,56561,-14544,3161,84528,33227, 153239.900, 40.0180228,-105.2489167, 2316.715,2338.039, 10748.684,7600.467
1721673220.888286,1034,-260,-128,-3228,-14342,988
1721673220.897757,1001,-275,-143,-3631,-16765,3228
1721673220.907228,930,-228,-196,-4891,-20292,1295
1721673220.916699,909,-336,-210,-6912,-21009,-5950
1721673220.926170,803,-247,-201,-8198,-18682,-15864
1721673220.935641,651,-295,-141,-11427,-15374,-19959
1721673220.945112,643,-305,-173,-10998,-9004,-19802
1721673220.954590,788,-311,-151,-9616,4856,-12977,56018,-15557,3021,84530,33227, 153240.000, 40.0180228,-105.2489167, 2316.715,2338.039, 10748.710,7600.486
1721673220.964061,1052,-437,-218,-9966,21883,-10185
1721673220.973532,1065,-463,-196,-10211,34781,-10850
1721673220.983003,1260,-428,-222,-13650,36697,-11297
1721673220.992474,1253,-373,-241,-18803,32838,-10343
1721673221.001945,1176,-300,-168,-22076,21061,-10579
1721673221.011416,1058,-260,-154,-22443,5407,-10754
1721673221.020887,814,-195,-105,-20930,-6747,-12408
1721673221.030365,748,-224,-99,-17613,-11174,-14665,55194,-16754,2746,84537,33234
1721673221.039836,844,-309,-128,-11935,-5592,-14027
1721673221.049307,940,-335,-164,-6921,4410,-11682
1721673221.058778,928,-331,-138,-5416,10771,-6554
1721673221.068249,1049,-312,-138,-6317,11025,481
1721673221.077720,1061,-345,-168,-7831,9161,8662
1721673221.087191,947,-375,-154,-9301,3263,13615
1721673221.096662,944,-382,-161,-11602,-4095,16432
1721673221.106140,1000,-363,-178,-15312,-7875,19075,55529,-16943,3356,,, 153240.100, 40.0180228,-105.2489167, 2316.715,2338.039, 10748.738,7600.506
1721673221.115611,955,-344,-188,-18506,-8724,18252
1721673221.125082,909,-328,-160,-20133,-9870,14805
1721673221.134553,895,-283,-162,-21463,-9555,11025
1721673221.144024,846,-231,-136,-22645,-7105,6693
1721673221.153495,862,-191,-103,-22190,-4620,3132
1721673221.162966,985,-205,-121,-18961,-1155,78
1721673221.172437,988,-225,-130,-13623,3150,-4752
1721673221.181915,1010,-239,-138,-8338,2905,-9240,,,,84521,33236, 153240.200, 40.0180228,-105.2489167, 2316.715,2338.039, 10748.768,7600.527
1721673221.191386,999,-249,-136,-3552,-1357,-11437
1721673221.200857,870,-228,-150,543,-6712,-13265
1721673221.210328,822,-316,-161,4025,-9862,-15777
1721673221.219799,836,-371,-175,8033,-7298,-18725
1721673221.229270,807,-284,-173,8645,-298,-21849
1721673221.238741,809,-189,-321,7035,7997,-25087
1721673221.248212,886,-415,-338,8164,14805,-29042
1721673221.257691,974,-660,179,10737,11952,-37319,54412,-17926,2838,84532,33240, 153240.300, 40.0180228,-105.2489167, 2316.715,2338.039, 10748.798,7600.547
1721673221.267162,1103,-200,-125,6554,4060,-27187
1721673221.276633,1027,-346,-108,928,5635,-7639
1721673221.286104,1061,-494,-253,910,4138,-9485
1721673221.295575,1095,-484,-189,-5250,-4218,-5110
1721673221.305046,1082,-385,-169,-9450,-17010,5145
1721673221.314517,989,-360,-175,-10001,-26425,8338
1721673221.323988,931,-302,-159,-8785,-30634,7148
1721673221.333496,869,-239,-112,-7612,-30625,6597,54797,-18286,3576,84530,33238
1721673221.342968,799,-265,-133,-4996,-26469,3727
1721673221.352440,858,-305,-96,-1645,-18017,-1488
1721673221.361912,876,-309,-91,-262,-9013,-1225
1721673221.371384,888,-353,-111,0,-3282,1872
1721673221.380856,910,-397,-159,832,-228,5722
1721673221.390328,874,-352,-153,-411,621,9677
1721673221.399800,880,-347,-129,-3640,446,13247
1721673221.409302,902,-354,-155,-5101,1557,13860,54821,-17852,3283,,, 153240.400, 40.0180228,-105.2489167, 2316.715,2338.039, 10748.828,7600.569
1721673221.418774,815,-315,-91,-4698,2913,13658
1721673221.428246,977,-323,-239,-3841,3176,13273
1721673221.437718,933,-344,-218,-2660,4935,11777
1721673221.447190,931,-344,-194,-3867,2546,5836
1721673221.456662,838,-373,-100,-6037,446,1242
1721673221.466134,919,-298,-109,-6457,122,-1549
1721673221.475606,927,-353,-190,-6107,3342,-4305
1721673221.485077,865,-361,-139,-4961,4987,-9302,54547,-18426,3204,84531,33245, 153240.500, 40.0180228,-105.2489167, 2316.715,2338.039, 10748.858,7600.591
1721673221.494549,892,-385,-109,-6912,3937,-12749
1721673221.504021,986,-417,-252,-6921,5993,-8444
1721673221.513493,898,-430,-199,-5888,6370,463
1721673221.522965,981,-327,-157,-9695,-377,5915
1721673221.532437,889,-267,-39,-13895,-5425,12538
1721673221.541909,1000,-278,-127,-12958,-7525,16100
1721673221.551381,948,-335,-133,-8548,-6650,16765
1721673221.560852,858,-303,-146,-4628,-7412,14087,54492,-18194,3094,84526,33249, 153240.600, 40.0180228,-105.2489167, 2316.715,2338.039, 10748.892,7600.614
1721673221.570323,875,-360,-156,-3202,-7009,9765
1721673221.579794,870,-346,-160,-1513,-2258,6107
1721673221.589265,900,-326,-139,-1548,2493,3561
1721673221.598736,967,-308,-121,-1601,6413,1933
1721673221.608207,984,-301,-119,-1627,8636,1321
1721673221.617678,997,-349,-147,-848,8006,1820
1721673221.627149,1000,-386,-169,718,4830,3377
1721673221.636627,981,-392,-177,578,-210,4987,,,,84522,33252
1721673221.646098,939,-402,-182,-1741,-4857,5302
1721673221.655569,919,-388,-235,-4208,-7132,5538
1721673221.665040,932,-368,-166,-5950,-7420,7026
1721673221.674511,980,-345,-159,-8907,-8129,6597
1721673221.683982,962,-324,-116,-11007,-7674,5101
1721673221.693453,915,-317,-156,-11357,-6983,1085
1721673221.702924,879,-332,-192,-10342,-5907,-3614
1721673221.712403,952,-311,-161,-9117,-4970,-6510,54583,-18414,3460,,, 153240.700, 40.0180228,-105.2489167, 2316.715,2338.039, 10748.924,7600.637
1721673221.721874,897,-289,-135,-9301,-5198,-8120
1721673221.731345,790,-303,-183,-8417,-5749,-11157
1721673221.740816,848,-322,-170,-6151,-4918,-13152
1721673221.750287,933,-331,-155,-4978,-3474,-9792
1721673221.759758,911,-334,-156,-4436,-2870,-6659
1721673221.769229,888,-347,-117,-3885,-2800,-6143
1721673221.778700,903,-291,-55,-3465,-1899,-4568
1721673221.788178,851,-287,-125,-2240,1198,-2932,54107,-18939,3308,84532,33261, 153240.800, 40.0180228,-105.2489167, 2316.715,2338.039, 10748.956,7600.660
1721673221.797649,914,-319,-105,1488,5320,-5215
1721673221.807120,994,-377,-128,3982,6807,-6869
1721673221.816591,964,-361,-126,4655,5565,-5749
1721673221.826062,893,-383,-158,5145,2100,-6554
1721673221.835533,895,-413,-183,6414,-867,-6143
1721673221.845004,939,-443,-184,5732,-1812,-4428
1721673221.854475,970,-439,-167,3124,-1453,-2223
1721673221.863953,1015,-419,-146,-376,-1147,857,54089,-18731,3356,84522,33263, 153240.900, 40.0180228,-105.2489167, 2316.715,2338.039, 10748.990,7600.684
1721673221.873424,1051,-396,-122,-3263,-1540,5985
1721673221.882895,1065,-374,-100,-4996,-3159,10526
1721673221.892366,1059,-422,-29,-5906,-5670,12722
1721673221.901837,1019,-302,-270,-6273,-7893,14901
1721673221.911308,835,-464,-92,-6641,-9380,17561
1721673221.920779,820,-282,-264,-8330,-13117,16695
1721673221.930250,853,-295,-117,-12757,-9932,22128
1721673221.939728,927,-268,-140,-13956,-7009,20028,54571,-19006,3790,84536,33261
1721673221.949199,892,-279,-154,-13772,-4892,17517
1721673221.958670,966,-272,-135,-11068,-4927,12442
1721673221.968141,1026,-300,-168,-9528,-4927,7087
1721673221.977612,1056,-408,-172,-7498,-4962,-280
1721673221.987083,963,-362,-167,-5871,-8383,-6843
1721673221.996554,868,-325,-106,-7183,-12635,-9940
1721673222.006025,795,-303,-31,-6912,-12583,-11769
1721673222.015503,694,-243,-97,-4296,-8024,-13309,,,,,, 153241.000, 40.0180228,-105.2489167, 2316.715,2338.039, 10749.026,7600.709
1721673222.024974,630,-300,-43,937,910,-12530
1721673222.034445,593,-194,-15,6580,10395,-11507
1721673222.043916,758,-236,-213,9529,21962,-5399
1721673222.053387,892,-402,-347,16275,33241,-2678
1721673222.062858,982,-447,-427,16652,31902,-1575
1721673222.072329,1087,-441,-260,7263,22916,700
1721673222.081800,1079,-366,-195,-4558,10535,271
1721673222.091309,1058,-395,-145,-10377,2607,-4612,53558,-19372,2844,84525,33265, 153241.100, 40.0180228,-105.2489167, 2316.715,2338.039, 10749.062,7600.735
1721673222.100780,1116,-430,-142,-7953,-2109,-9013
1721673222.110251,1128,-468,-155,-3937,-6274,-10492
1721673222.119722,1054,-463,-186,-1496,-11454,-14219
1721673222.129193,963,-433,-217,-1575,-16695,-17973
1721673222.138664,921,-422,-242,-2345,-18209,-18883
1721673222.148135,914,-385,-234,-4585,-16065,-16862
1721673222.157606,903,-314,-184,-9791,-13528,-12854
1721673222.167114,882,-237,-137,-15120,-11743,-7027,53448,-20336,3649,84526,33270, 153241.200, 40.0180228,-105.2489167, 2316.715,2338.039, 10749.098,7600.760
1721673222.176586,823,-245,-112,-16931,-10255,-2485
1721673222.186058,736,-335,-137,-14621,-9459,621
1721673222.195530,731,-346,-137,-11348,-8707,6212
1721673222.205002,777,-314,-135,-8470,-8400,17893
1721673222.214474,818,-282,-111,-5293,-7280,26652
1721673222.223946,885,-246,-92,-1443,-4822,29793
1721673222.233418,938,-241,-95,3842,-1855,30257
1721673222.242890,952,-281,-105,9625,1076,26363,53936,-19445,3271,84530,33279, 153241.300, 40.0180228,-105.2489167, 2316.715,2338.039, 10749.136,7600.786
1721673222.252362,949,-337,-121,13817,4112,17543
1721673222.261834,975,-374,-119,14937,7402,7848
1721673222.271306,974,-409,-155,13860,9922,-237
1721673222.280778,976,-473,-162,12172,10841,-7665
1721673222.290250,1021,-486,-124,9267,10123,-12320
1721673222.299722,1076,-446,-92,5583,7910,-11017
1721673222.309194,1164,-401,-71,2687,4042,-7709
1721673222.318665,1248,-355,-72,1409,-560,-6362,53186,-20281,3326
1721673222.328137,1240,-321,-94,2275,-6073,-10185
1721673222.337609,1117,-337,-116,5784,-12845,-18209
1721673222.347081,1029,-302,-151,8015,-19469,-30109
1721673222.356553,931,-267,-116,7420,-23407,-38737
1721673222.366025,779,-283,-126,6817,-24194,-46305
1721673222.375497,674,-291,-177,8707,-22199,-52142
1721673222.384969,588,-392,-208,10675,-17317,-52334
1721673222.394440,499,-482,-226,11270,-11043,-48388,52001,-21453,2911,84526,33279, 153241.400, 40.0180228,-105.2489167, 2316.715,2338.039, 10749.174,7600.813
1721673222.403911,610,-418,-232,8628,-4025,-37258
1721673222.413382,764,-415,-163,4332,4033,-23223
1721673222.422853,882,-434,-186,3684,7988,-14569
1721673222.432324,861,-411,-110,5618,7000,-8838
1721673222.441795,913,-393,-252,8470,3325,-4822
1721673222.451266,818,-437,-157,12609,840,-4542
1721673222.460737,814,-323,-162,13405,-2284,-7105
1721673222.470215,767,-330,-124,12758,-1768,-6782,,,,84534,33293, 153241.500, 40.0180228,-105.2489167, 2316.715,2338.039, 10749.212,7600.841
1721673222.479686,779,-324,-144,15567,236,-10500
1721673222.489157,811,-405,-134,19040,3071,-12802
1721673222.498628,936,-466,-176,21149,5477,-15733
1721673222.508099,1062,-566,-228,20362,7376,-17457
1721673222.517570,1138,-701,-280,17649,7437,-21447
1721673222.527041,1135,-696,-245,11787,4978,-25410
1721673222.536512,1076,-572,-210,3387,-1182,-22978
1721673222.545990,967,-469,-180,-4488,-8278,-19574,50976,-21942,2154,84529,33295, 153241.600, 40.0180228,-105.2489167, 2316.715,2338.039, 10749.252,7600.868
1721673222.555461,854,-403,-206,-8496,-13152,-18218
1721673222.564932,747,-292,-76,-9117,-14420,-17185
1721673222.574403,851,-268,-127,-7752,-12863,-15698
1721673222.583874,935,-410,-158,-1225,-9503,-14088
1721673222.593345,945,-453,-183,6825,-8987,-15943
1721673222.602816,862,-420,-164,10220,-11717,-17150
1721673222.612287,757,-398,-167,11927,-14727,-15208
1721673222.621765,724,-444,-192,14517,-14219,-10737,50689,-22436,2233
1721673222.631236,785,-482,-210,16520,-9993,-4069
1721673222.640707,857,-523,-204,15672,-5460,5276
1721673222.650178,890,-587,-210,12819,-3509,14708
1721673222.659649,908,-614,-209,9135,-3772,22916
1721673222.669120,917,-596,-192,3947,-5233,28253
1721673222.678591,945,-582,-185,-866,-6292,30441
1721673222.688062,932,-573,-158,-3832,-7490,28525
1721673222.697540,981,-539,-176,-5355,-9310,24141,51702,-21527,2563,84529,33297, 153241.700, 40.0180228,-105.2489167, 2316.715,2338.039, 10749.292,7600.897
1721673222.707011,986,-517,-190,-5713,-10894,19617
1721673222.716482,921,-462,-179,-5766,-13537,13396
1721673222.725953,861,-378,-157,-6798,-16144,7560
1721673222.735424,820,-341,-137,-7848,-16844,4025
1721673222.744895,811,-326,-91,-7603,-15330,2870
1721673222.754366,830,-357,-80,-7297,-12434,2581
1721673222.763837,863,-441,-42,-5836,-8724,3010
1721673222.773316,692,-401,-152,-3290,-5977,2861,51800,-21582,2825,84527,33299, 153241.800, 40.0180228,-105.2489167, 2316.715,2338.039, 10749.332,7600.926
1721673222.782787,748,-349,-121,-140,-4174,6903
1721673222.792258,773,-349,-144,508,-4157,10885
1721673222.801729,828,-352,-161,1768,-4052,8802
1721673222.811200,868,-374,-131,4025,-2853,3018
1721673222.820671,711,-374,-59,6344,-1365,-7770
1721673222.830142,678,-333,-59,10325,498,-16949
1721673222.839613,982,-444,-164,18025,6527,-15129
1721673222.849091,1116,-562,-242,24535,12827,-19277,50225,-22094,1708,84529,33308, 153241.900, 40.0180228,-105.2489167, 2316.715,2338.039, 10749.374,7600.955
1721673222.858562,1134,-621,-249,24457,11865,-33224
1721673222.868033,1098,-585,-244,20178,7708,-41694
1721673222.877504,929,-464,-163,14044,3220,-43147
1721673222.886975,867,-352,-122,8724,385,-38509
1721673222.896446,852,-323,-147,8365,1102,-25384
1721673222.905917,836,-342,-169,11708,2187,-12443
1721673222.915388,868,-357,-180,15112,1837,-4165
1721673222.924866,920,-354,-200,17693,1006,1417,,,,84524,33311
1721673222.934337,883,-323,-94,19679,-875,1942
1721673222.943808,995,-344,-177,21569,-2897,-4690
1721673222.953279,989,-340,-123,24807,-1505,-15768
1721673222.962750,954,-320,-71,31177,682,-23800
1721673222.972221,915,-356,-49,37442,2318,-32270
1721673222.981692,945,-314,-73,43785,4366,-38212
1721673222.991163,911,-390,-105,49552,5722,-40950
1721673223.000702,900,-338,-136,54172,5022,-43138,48687,-21771,-323,,, 153242.000, 40.0180228,-105.2489167, 2316.715,2338.039, 10749.416,7600.985
1721673223.010173,879,-290,-173,55274,5486,-40058
1721673223.019644,908,-239,-101,56167,4156,-36033
1721673223.029115,975,-192,-78,58100,-420,-27292
1721673223.038586,1030,-315,-153,59588,-5128,-17973
1721673223.048057,1097,-397,-285,62362,-10238,-9459
1721673223.057528,1172,-254,-232,64689,-18979,8960
1721673223.066999,1180,-289,-195,63228,-32988,22382
1721673223.076447,1192,-279,-212,59588,-47093,23073,50292,-18341,-1373,84525,33320, 153242.100, 40.0180228,-105.2489167, 2316.715,2338.039, 10749.460,7601.016
1721673223.085918,1152,-269,-217,56744,-58415,23905
1721673223.095389,1058,-357,-213,55642,-66912,23257
1721673223.104860,827,-602,-350,56560,-72932,24001
1721673223.114331,870,-600,-331,57243,-75828,30905
1721673223.123802,1096,-371,-224,54303,-75845,52438
1721673223.133273,969,-434,-237,46524,-73780,62623
1721673223.142744,900,-460,-307,38317,-68040,56218
1721673223.152222,990,-511,-371,34099,-60690,66613,56384,-11987,1055,84529,33320, 153242.200, 40.0180228,-105.2489167, 2316.715,2338.039, 10749.504,7601.046
1721673223.161693,1145,-585,-355,34397,-57987,83536
1721673223.171164,1320,-651,-336,34598,-62090,101316
1721673223.180635,1400,-633,-369,31037,-71750,113846
1721673223.190106,1359,-585,-366,22147,-86083,118186
1721673223.199577,1190,-546,-238,9249,-102463,113015
1721673223.209048,1006,-498,-160,-4611,-114993,102497
1721673223.218519,872,-414,-151,-14612,-118353,97002
1721673223.227997,807,-360,-68,-15513,-112972,99715,62908,-4327,7513,84532,33324
1721673223.237468,822,-396,-37,-8872,-102095,104938
1721673223.246939,936,-502,-88,-253,-89985,109917
1721673223.256410,1092,-628,-106,5670,-79757,115535
1721673223.265881,1188,-645,-86,6720,-75058,120277
1721673223.275352,1228,-619,-52,3282,-76362,121572
1721673223.284823,1312,-577,-27,368,-79818,116786
1721673223.294294,1296,-509,-49,884,-83414,113032
1721673223.303772,1118,-666,-112,3264,-90362,113181,,,,,, 153242.300, 40.0180228,-105.2489167, 2316.715,2338.039, 10749.548,7601.078
1721673223.313243,1072,-810,-198,6790,-100170,116340
1721673223.322714,935,-856,-181,5592,-109445,124670
1721673223.332185,900,-693,-26,-3517,-117740,138066
1721673223.341656,1248,-312,-4,-18401,-122054,150928
1721673223.351127,1435,-157,201,-32742,-124040,159031
1721673223.360598,1212,-140,289,-41361,-128433,144252
1721673223.370069,1201,-26,222,-44852,-131355,120216
1721673223.379547,1070,-19,232,-41396,-128555,112148,67529,5584,16827,84527,33326, 153242.400, 40.0180228,-105.2489167, 2316.715,2338.039, 10749.594,7601.110
1721673223.389018,1006,-16,252,-33460,-123778,105988
1721673223.398489,943,-23,233,-28411,-118405,102427
1721673223.407960,872,-40,206,-26057,-116279,102357
1721673223.417431,793,-15,208,-23108,-116944,105918
1721673223.426902,747,-69,148,-19075,-118309,113706
1721673223.436373,839,-139,106,-14140,-119009,124967
1721673223.445844,988,-139,131,-11935,-118362,134023
1721673223.455322,1035,-114,104,-14612,-119009,135730,68212,15429,27209,84530,33331, 153242.500, 40.0180228,-105.2489167, 2316.715,2338.039, 10749.640,7601.142
1721673223.464793,962,-96,86,-20545,-122194,127452
1721673223.474264,875,-28,102,-28761,-125615,111335
1721673223.483735,719,83,152,-37222,-127724,94666
1721673223.493206,563,191,228,-44590,-126000,79012
1721673223.502677,502,229,278,-48483,-119525,67637
1721673223.512148,618,240,317,-48431,-109139,62475
1721673223.521619,560,216,400,-46830,-97554,57671
1721673223.531098,525,292,423,-44703,-88209,49901,66467,21520,35345,84531,33338
1721673223.540569,579,280,418,-41702,-79678,48588
1721673223.550040,605,282,419,-35236,-72652,52132
1721673223.559511,705,307,415,-27011,-67988,55895
1721673223.568982,757,293,483,-20562,-65328,54818
1721673223.578453,680,334,527,-16607,-66299,49148
1721673223.587924,621,379,549,-15006,-70175,46751
1721673223.597395,534,389,632,-12958,-73973,50566
1721673223.606873,539,440,708,-9520,-75285,55868,62719,27301,42156,,, 153242.600, 40.0180228,-105.2489167, 2316.715,2338.039, 10749.686,7601.176
1721673223.616344,633,451,634,-4646,-73045,64128
1721673223.625815,739,405,622,4104,-70508,74523
1721673223.635286,717,349,599,15479,-68644,79730
1721673223.644757,685,322,579,24938,-66588,79817
1721673223.654228,701,317,534,28805,-63902,82967
1721673223.663699,728,284,477,26828,-62589,86546
1721673223.673170,732,231,474,20440,-64190,85163
1721673223.682648,742,254,532,10737,-68793,80386,55670,34674,48303,84528,33345, 153242.700, 40.0180228,-105.2489167, 2316.715,2338.039, 10749.732,7601.209
1721673223.692119,745,335,542,-1715,-74244,76641
1721673223.701590,700,382,580,-14551,-78768,71286
1721673223.711061,580,341,659,-25077,-82373,63035
1721673223.720532,415,183,627,-32558,-85173,61967
1721673223.730003,481,224,525,-38675,-88025,84463
1721673223.739474,654,412,557,-44450,-94667,119280
1721673223.748945,864,821,744,-49857,-106392,141435
1721673223.758423,452,920,887,-54328,-118248,129745,,,,84532,33342, 153242.800, 40.0180228,-105.2489167, 2316.715,2338.039, 10749.782,7601.243
1721673223.767894,103,822,793,-52832,-119534,93117
1721673223.777365,39,689,731,-41798,-103950,71120
1721673223.786836,-8,606,597,-25821,-80063,62308
1721673223.796307,434,617,427,-9957,-58337,62527
1721673223.805778,468,183,566,1969,-43050,68976
1721673223.815249,604,220,564,3815,-36348,64408
1721673223.824720,457,407,749,-5171,-39113,49542
1721673223.834229,357,548,888,-17815,-45142,49446,47924,40057,52398,84529,33349
1721673223.843700,241,484,803,-29058,-56132,46095
1721673223.853171,195,492,673,-38202,-72634,36548
1721673223.862642,151,607,686,-43137,-89933,32077
1721673223.872113,41,684,876,-42183,-103084,37668
1721673223.881584,-69,642,935,-36321,-110032,43942
1721673223.891055,-161,601,815,-27807,-110775,45333
1721673223.900526,-171,706,659,-19127,-105902,42927
1721673223.910004,-76,745,556,-11427,-97038,37021,39624,43035,56420,,, 153242.900, 40.0180228,-105.2489167, 2316.715,2338.039, 10749.830,7601.278
1721673223.919475,20,761,544,-2878,-87877,29977
1721673223.928946,326,705,577,7079,-80763,27011
1721673223.938417,315,776,703,16993,-76082,25375
1721673223.947888,506,766,902,24824,-75880,22758
1721673223.957359,347,632,1006,30433,-77552,48221
1721673223.966830,132,789,849,32927,-77578,52298
1721673223.976301,190,675,667,30433,-82565,42367
1721673223.985809,281,568,637,29418,-94492,38500,28533,43145,62268,84528,33354, 153243.000, 40.0180228,-105.2489167, 2316.715,2338.039, 10749.880,7601.313
1721673223.995281,118,524,597,31369,-113138,40180
1721673224.004753,-62,562,588,34615,-135547,48212
1721673224.014225,-299,597,634,38675,-153134,53252
1721673224.023697,-475,565,786,45203,-163065,54678
1721673224.033169,-520,490,807,53052,-164203,50146
1721673224.042641,-609,478,730,59098,-159417,40495
1721673224.052113,-570,554,706,63228,-152408,31578
1721673224.061585,-349,581,691,66798,-144332,21883,15893,39489,68096,84535,33360, 153243.100, 40.0180228,-105.2489167, 2316.715,2338.039, 10749.932,7601.349
1721673224.071057,-147,645,641,70333,-136448,12705
1721673224.080529,-121,593,674,74087,-129492,15216
1721673224.090001,-258,506,747,77508,-121538,27947
1721673224.099473,-439,408,831,77552,-110145,38640
1721673224.108945,-565,378,899,72993,-95752,39786
1721673224.118417,-633,312,965,64112,-80702,35848
1721673224.127889,-668,277,991,52002,-64593,29601
1721673224.137360,-614,266,892,36444,-47364,21140,9869,38580,68054,84532,33363
1721673224.146831,-570,302,736,18507,-32533,11383
1721673224.156302,-433,111,598,2319,-22812,5390
1721673224.165773,-648,616,687,-8452,-15820,4646
1721673224.175244,-545,502,861,-14656,-11603,5853
1721673224.184715,-472,527,918,-13571,-13003,2983
1721673224.194186,-412,541,746,-10990,-19110,-5058
1721673224.203657,-435,543,628,-9406,-27965,-5163
1721673224.213135,-487,475,626,-6571,-35394,-6213,,,,,, 153243.200, 40.0180228,-105.2489167, 2316.715,2338.039, 10749.982,7601.386
1721673224.222606,-597,553,785,-61,-37870,-3290
1721673224.232077,-603,576,819,10955,-36969,455
1721673224.241548,-588,476,691,24955,-36094,4252
1721673224.251019,-575,357,624,36348,-36435,5083
1721673224.260490,-625,258,676,40040,-37179,1233
1721673224.269961,-718,251,709,36488,-37284,796
1721673224.279432,-769,298,659,28394,-35919,1697
1721673224.288910,-810,324,692,19469,-30372,0,3973,36315,68426,84531,33367, 153243.300, 40.0180228,-105.2489167, 2316.715,2338.039, 10750.034,7601.422
1721673224.298381,-780,318,731,13913,-18892,-3527
1721673224.307852,-744,313,713,12329,-3247,-5119
1721673224.317323,-696,305,716,11402,12775,-4314
1721673224.326794,-634,298,699,8785,26827,-2555
1721673224.336265,-656,306,662,3553,36006,-1287
1721673224.345736,-726,314,628,-3106,40285,-1050
1721673224.355207,-849,282,595,-8802,43776,-2065
1721673224.364685,-895,303,564,-11620,48510,-5180,3100,35461,68505,84531,33372, 153243.400, 40.0180228,-105.2489167, 2316.715,2338.039, 10750.088,7601.459
1721673224.374156,-747,277,543,-10360,52158,-14062
1721673224.383627,-698,295,580,-6965,54320,-21237
1721673224.393098,-743,282,647,-5906,56140,-22777
1721673224.402569,-804,267,669,-6326,60593,-23739
1721673224.412040,-845,260,679,-7883,70411,-24938
1721673224.421511,-856,271,763,-11716,86275,-26154
1721673224.430982,-830,282,855,-17482,106566,-28027
1721673224.440460,-801,254,848,-23913,128143,-31614,9338,37615,68707,84527,33379
1721673224.449931,-766,248,798,-31920,146938,-35298
1721673224.459402,-695,276,785,-42761,160895,-37372
1721673224.468873,-674,286,764,-55063,168735,-39218
1721673224.478344,-647,348,689,-65485,170327,-41624
1721673224.487815,-589,442,670,-71085,167510,-44039
1721673224.497286,-499,472,601,-69912,161840,-46857
1721673224.506757,-476,423,481,-62930,153326,-47793
1721673224.516236,-515,465,546,-54582,141732,-50715,16259,39471,67926,,, 153243.500, 40.0180228,-105.2489167, 2316.715,2338.039, 10750.142,7601.497
1721673224.525707,-533,517,533,-47197,128345,-51450
1721673224.535178,-527,514,513,-36636,115482,-50978
1721673224.544649,-501,475,500,-23590,105752,-51083
1721673224.554120,-532,453,494,-11690,99338,-51223
1721673224.563591,-509,455,586,-3500,95891,-51687
1721673224.573062,-481,453,768,1217,95865,-52877
1721673224.582533,-458,527,940,4585,98157,-54215
1721673224.592041,-406,561,958,7762,100975,-54845,,,,84531,33381, 153243.600, 40.0180228,-105.2489167, 2316.715,2338.039, 10750.194,7601.535
1721673224.601512,-424,454,902,13143,103250,-52579
1721673224.610983,-493,347,906,20440,106032,-48852
1721673224.620454,-514,334,990,24955,111221,-48607
1721673224.629925,-482,346,1035,24422,119402,-52054
1721673224.639396,-406,293,1062,20659,126927,-54854
1721673224.648867,-350,298,1070,14158,130252,-57427
1721673224.658338,-258,385,1084,5023,130331,-57794
1721673224.667816,-279,417,1083,-3666,129526,-56499,23583,38287,68579,84524,33383, 153243.700, 40.0180228,-105.2489167, 2316.715,2338.039, 10750.250,7601.574
1721673224.677287,-333,421,1101,-9336,129465,-62204
1721673224.686758,-281,417,1032,-13081,132851,-70622
1721673224.696229,-241,422,925,-16170,140017,-76379
1721673224.705700,-291,334,868,-18278,149975,-80238
1721673224.715171,-398,226,838,-19250,161271,-83388
1721673224.724642,-452,429,974,-19845,172628,-82539
1721673224.734113,-567,620,1024,-20291,183085,-77534
1721673224.743591,-439,373,651,-16791,196078,-85680,35980,37866,65185,84535,33392
1721673224.753063,-301,250,261,-8330,211093,-93617
1721673224.762535,-130,544,374,2932,217393,-83904
1721673224.772007,52,763,528,19137,210490,-57724
1721673224.781479,234,542,589,39069,195851,-40259
1721673224.790951,169,710,745,57462,181483,-39804
1721673224.800423,86,766,910,70088,172375,-35464
1721673224.809895,308,638,924,77114,165856,-33592
1721673224.819367,411,510,988,80054,159521,-35613,44635,33782,63250,,, 153243.798, 40.0180228,-105.2489167, 2316.715,2338.039, 10750.306,7601.614
1721673224.828838,415,361,916,80780,154953,-24422
1721673224.838309,671,216,748,77385,146317,-13843
1721673224.847780,773,222,697,69685,130305,-12180
1721673224.857251,659,279,782,62012,107275,-8505
1721673224.866722,528,380,867,57567,81585,-6327
1721673224.876193,370,439,977,56823,59526,-4507
1721673224.885664,266,498,979,59002,44283,-1680
1721673224.895142,156,503,965,62939,36155,1592,46185,30792,64654,84533,33392, 153243.898, 40.0019721,-105.2442242, 2316.715,2338.044, 942.906,707.107
1721673224.904613,79,505,971,68635,34413,4173
1721673224.914084,278,476,936,74944,40652,5985
1721673224.923555,341,373,930,80072,53471,12110
1721673224.933026,350,240,946,83379,67847,19162
1721673224.942497,387,255,882,82977,79975,20317
1721673224.951968,553,304,841,79827,87272,19346
1721673224.961439,759,206,874,77963,89215,12687
1721673224.970917,746,194,884,80282,86161,-1024,48730,27032,65332,84523,33401, 153244.000, 40.0105419,-105.2442587, 1665.811,1687.139, 287.082,218.745
1721673224.980388,732,131,865,85663,79178,-19198
1721673224.989859,360,296,765,91884,69833,-40338
1721673224.999330,-516,287,682,95428,60830,-55397
1721673225.008801,-142,85,850,84805,55868,-30092
1721673225.018272,582,230,886,59658,50137,23388
1721673225.027743,390,237,1050,46524,41238,37555
1721673225.037214,244,197,924,45597,39278,27247
1721673225.046692,231,82,868,45308,42665,19057,,,,84528,33406
1721673225.056163,239,59,923,43418,45902,16598
1721673225.065634,179,75,912,40154,49682,13763
1721673225.075105,162,79,903,34440,55352,8750
1721673225.084576,217,92,882,29129,62702,4838
1721673225.094047,220,101,889,26303,69282,3543
1721673225.103518,194,115,910,25953,74243,2546
1721673225.112989,252,128,924,26714,78715,2318
1721673225.122467,240,87,910,26732,81672,3123,51263,25799,63818,,, 153244.100, 40.0105213,-105.2442601, 1661.380,1682.708, 230.312,173.183
1721673225.131938,193,61,896,25244,82810,1505
1721673225.141409,145,83,872,22890,85925,2073
1721673225.150880,145,87,819,19942,92960,3001
1721673225.160351,90,70,824,15540,102068,-1077
1721673225.169822,21,110,851,11498,114126,-8313
1721673225.179293,53,136,811,9809,131241,-16223
1721673225.188764,150,146,800,11515,150815,-18734
1721673225.198242,167,82,814,16074,168691,-15444,57733,25030,56365,84527,33404, 153244.200, 40.0105425,-105.2442359, 1637.339,1658.667, 165.295,100.127
1721673225.207713,192,138,770,21368,183618,-7140
1721673225.217184,271,177,649,26338,198108,5643
1721673225.226655,368,156,631,31973,213115,15146
1721673225.236126,530,117,661,37625,226520,16493
1721673225.245597,726,149,582,39918,235873,17605
1721673225.255068,809,146,486,37975,239986,18821
1721673225.264539,836,135,413,34362,237370,13921
1721673225.274048,923,114,382,31658,227981,3771,63897,24670,43023,84534,33417, 153244.300, 40.0105444,-105.2442446, 1637.025,1658.353, 141.276,89.515
1721673225.283519,988,129,357,30783,213421,-6712
1721673225.292990,1042,133,393,30905,196341,-13703
1721673225.302461,1121,73,406,28989,178351,-16057
1721673225.311932,1151,32,319,21587,160160,-17159
1721673225.321403,1184,37,259,8418,140700,-16135
1721673225.330874,1168,70,239,-5661,120776,-16170
1721673225.340345,1111,145,266,-14603,104300,-19207
1721673225.349854,1069,160,262,-15312,94832,-23748,65362,24401,35968,84531,33424
1721673225.359325,1074,121,231,-8872,90965,-25017
1721673225.368796,1044,99,231,438,87911,-22322
1721673225.378267,1065,46,203,6747,83326,-20335
1721673225.387738,1111,81,222,7394,78662,-18874
1721673225.397209,1123,131,245,4209,74270,-15103
1721673225.406680,1112,105,176,1610,68976,-11314
1721673225.416151,1082,109,170,1925,63533,-7657
1721673225.425629,1033,110,188,5364,59657,-5688,,,,84531,33422, 153244.400, 40.0105257,-105.2442539, 1633.887,1655.215, 124.038,81.160
1721673225.435100,1056,75,161,11148,57198,-2240
1721673225.444571,1059,50,177,16975,55536,1251
1721673225.454042,1036,41,167,21665,53068,2196
1721673225.463513,1004,29,137,25043,50120,2003
1721673225.472984,1019,43,143,27134,47232,717
1721673225.482455,1035,33,149,27668,44975,-1943
1721673225.491926,1058,8,139,27239,42945,-6169
1721673225.501404,1122,7,149,25997,40556,-9625,65289,25085,32348,,, 153244.500, 40.0105118,-105.2442625, 1632.445,1653.773, 111.117,74.386
1721673225.510875,1191,11,164,24299,37030,-11008
1721673225.520346,1205,9,167,22435,30905,-11760
1721673225.529817,1156,22,170,20458,21000,-13510
1721673225.539288,1057,79,156,19084,9432,-15409
1721673225.548759,897,78,160,19653,-53,-17640
1721673225.558230,780,63,148,23503,-4787,-20353
1721673225.567701,701,55,155,28823,-2757,-20143
1721673225.577179,657,56,150,33154,6545,-17973,65417,24877,31549,84528,33428, 153244.600, 40.0105001,-105.2442690, 1632.298,1653.626, 99.899,68.241
1721673225.586650,670,27,165,36190,21280,-15750
1721673225.596121,726,-46,182,37932,38648,-13913
1721673225.605592,797,-71,171,38299,55763,-10264
1721673225.615063,847,-62,133,37057,70201,-2407
1721673225.624534,956,-47,116,36059,80377,4313
1721673225.634005,1000,-96,109,37030,85137,9345
1721673225.643476,1059,-100,101,38815,84875,18847
1721673225.652954,1012,-60,13,40312,81121,30283,63800,27728,26580,84528,33428
1721673225.662425,919,61,147,41922,76090,39506
1721673225.671896,863,60,149,45623,74138,47678
1721673225.681367,790,-46,103,51328,73578,61460
1721673225.690838,830,-26,120,54810,73526,72371
1721673225.700309,801,-3,-9,51695,75398,81760
1721673225.709780,774,-98,-45,42989,78373,81086
1721673225.719251,880,-40,93,31430,79423,61915
1721673225.728729,968,-37,131,19513,79135,61425,58306,34698,20031,84536,33440, 153244.700, 40.0104997,-105.2442948, 1634.226,1655.554, 93.339,63.886
1721673225.738200,955,-21,96,7814,79948,71356
1721673225.747671,963,41,43,-4445,82836,80946
1721673225.757142,878,9,22,-17036,88357,90921
1721673225.766613,777,19,11,-28647,96845,104195
1721673225.776084,795,32,-26,-37056,105157,108981
1721673225.785555,785,28,-103,-43426,112140,113557
1721673225.795026,765,68,-144,-49778,117888,119087
1721673225.804505,760,168,-155,-56288,123077,124915,47644,39685,7922,,, 153244.800, 40.0105157,-105.2442901, 1627.924,1649.252, 87.283,52.603
1721673225.813976,731,268,-176,-62772,128747,126253
1721673225.823447,698,140,-264,-69011,134697,119078
1721673225.832918,705,102,-299,-75766,139002,105140
1721673225.842389,747,197,-276,-83378,140568,94587
1721673225.851860,752,256,-273,-90571,140096,85855
1721673225.861331,763,304,-304,-96477,137996,74996
1721673225.870802,807,338,-328,-100677,134505,65441
1721673225.880280,808,319,-315,-102970,129465,56927,,,,84526,33440, 153244.900, 40.0105129,-105.2442942, 1626.318,1647.646, 82.959,46.243
1721673225.889751,786,385,-371,-103407,121773,48790
1721673225.899222,814,416,-486,-103110,110661,40451
1721673225.908693,867,496,-547,-103906,97037,29846
1721673225.918164,879,547,-551,-105805,81523,18200
1721673225.927635,877,532,-564,-105717,64741,4926
1721673225.937106,863,547,-608,-100695,48291,-8383
1721673225.946577,907,480,-655,-90545,34090,-19977
1721673225.956055,880,396,-645,-77175,22837,-29435,41534,37316,-1135,84528,33449, 153245.000, 40.0105172,-105.2443011, 1625.301,1646.629, 73.857,41.242
1721673225.965526,834,385,-630,-63647,14647,-36427
1721673225.974997,804,323,-663,-53042,9038,-40994
1721673225.984468,787,254,-666,-48072,6912,-48607
1721673225.993939,810,188,-658,-49630,7980,-59255
1721673226.003410,839,170,-640,-56052,10885,-68802
1721673226.012881,857,169,-658,-64461,14980,-75312
1721673226.022352,867,190,-681,-72415,20405,-77499
1721673226.031830,900,254,-668,-78566,27720,-74778,40948,32781,-5523,84537,33451
1721673226.041301,892,336,-688,-81987,36085,-67690
1721673226.050772,874,416,-679,-81970,44467,-60664
1721673226.060243,868,451,-677,-78487,51931,-52964
1721673226.069714,886,444,-675,-71592,57846,-46970
1721673226.079185,854,416,-692,-62772,61766,-43899
1721673226.088656,819,437,-688,-54162,63630,-43540
1721673226.098127,835,410,-665,-46961,64898,-44214
1721673226.107636,879,339,-649,-41553,65476,-47740,36816,29083,-10357,,, 153245.100, 40.0105209,-105.2443085, 1625.230,1646.558, 66.772,37.569
1721673226.117107,918,314,-674,-38823,63402,-52807
1721673226.126578,958,345,-680,-39698,57785,-54705
1721673226.136049,979,353,-671,-43776,49385,-53647
1721673226.145520,972,347,-651,-48798,39217,-51468
1721673226.154991,928,362,-617,-52543,28656,-47732
1721673226.164462,882,368,-617,-53655,19713,-42832
1721673226.173933,845,368,-633,-52657,13273,-38640
1721673226.183411,813,394,-651,-50820,8443,-36899,36041,25634,-12548,84536,33458, 153245.200, 40.0105161,-105.2443138, 1624.801,1646.129, 60.329,34.142
1721673226.192882,781,391,-656,-48676,3596,-38553
1721673226.202353,759,378,-656,-45508,-2389,-42525
1721673226.211824,740,354,-676,-40941,-9249,-46874
1721673226.221295,737,340,-711,-35507,-16022,-52702
1721673226.230766,725,342,-721,-30240,-22077,-59439
1721673226.240237,708,349,-728,-25847,-27117,-65704
1721673226.249708,694,358,-727,-22137,-30127,-70202
1721673226.259186,698,361,-727,-18340,-30039,-74848,35937,25268,-12951,84534,33467, 153245.300, 40.0105053,-105.2443153, 1623.733,1645.061, 54.866,31.549
1721673226.268657,712,350,-729,-14000,-27939,-78663
1721673226.278128,522,352,-551,-8636,-25629,-81122
1721673226.287599,686,249,-761,-630,-20292,-80667
1721673226.297070,745,358,-718,12775,2178,-68268
1721673226.306541,693,291,-660,20887,13483,-54644
1721673226.316012,774,195,-759,30879,20483,-46367
1721673226.325483,823,206,-723,36838,29120,-38107
1721673226.334961,824,142,-657,35849,30852,-36217,,,,84532,33469
1721673226.344432,851,43,-533,31527,27632,-41397
1721673226.353903,856,-99,-518,24588,24123,-46778
1721673226.363374,886,-83,-555,12128,22365,-48292
1721673226.372845,939,52,-582,-10325,23485,-47898
1721673226.382316,956,188,-686,-31473,22583,-45772
1721673226.391787,931,289,-729,-42218,15671,-44555
1721673226.401258,964,349,-759,-42218,6063,-47802
1721673226.410736,1002,327,-801,-35323,-3824,-51853,34265,23950,-14190,,, 153245.400, 40.0104941,-105.2443128, 1623.098,1644.426, 50.623,29.746
1721673226.420207,983,313,-796,-26460,-16634,-58109
1721673226.429678,957,251,-750,-19241,-31133,-64628
1721673226.439149,956,166,-728,-11620,-43444,-70858
1721673226.448620,987,85,-740,-4112,-54548,-78925
1721673226.458091,985,5,-757,202,-67157,-86424
1721673226.467562,964,-42,-785,-1443,-81262,-92138
1721673226.477033,629,-181,-699,-7988,-94194,-94824
1721673226.486511,501,-359,-470,-16423,-95927,-91919,37908,21740,-13653,84533,33474, 153245.500, 40.0104870,-105.2443106, 1622.281,1643.609, 47.201,28.392
1721673226.495982,757,-248,-825,-29671,-61137,-70622
1721673226.505453,1011,67,-935,-40985,-14989,-30424
1721673226.514924,944,45,-835,-35892,7446,7656
1721673226.524395,792,-105,-844,-26871,-6064,12110
1721673226.533866,797,-61,-795,-32270,-21455,-8724
1721673226.543337,726,-207,-709,-37415,-23932,-19837
1721673226.552808,648,-279,-832,-38981,-22243,-23284
1721673226.562287,655,-131,-855,-48868,-15619,-20379,36682,18261,-15429,84527,33474, 153245.600, 40.0104698,-105.2443054, 1621.544,1642.872, 43.805,27.139
1721673226.571758,641,-84,-833,-59640,-5810,-14377
1721673226.581229,607,-118,-847,-64487,315,-16835
1721673226.590700,607,-103,-884,-66071,4515,-23599
1721673226.600171,672,-48,-913,-62501,10543,-24859
1721673226.609642,721,-57,-885,-51975,17692,-21079
1721673226.619113,775,-104,-927,-41195,22863,-19679
1721673226.628584,846,-73,-960,-37135,25165,-19627
1721673226.638062,896,-50,-953,-39900,24885,-17710,33129,16046,-17364,84537,33483
1721673226.647533,941,-32,-954,-43408,23292,-13134
1721673226.657004,1002,-4,-1001,-43837,21507,-2520
1721673226.666475,993,0,-1002,-40197,19258,12626
1721673226.675946,877,-52,-970,-33783,12425,22750
1721673226.685417,834,-22,-950,-29767,5276,24613
1721673226.694888,848,-64,-857,-26363,4497,27667
1721673226.704359,764,-109,-778,-20055,2283,30205
1721673226.713837,671,-138,-790,-16135,-6615,28306,,,,,, 153245.700, 40.0104589,-105.2442995, 1621.311,1642.639, 40.828,25.681
1721673226.723308,620,-154,-861,-8496,-11437,24482
1721673226.732779,563,-137,-855,1575,-12250,25042
1721673226.742250,549,-189,-894,9057,-14097,24937
1721673226.751721,516,-204,-869,14035,-16494,24867
1721673226.761192,481,-201,-899,14114,-16958,28140
1721673226.770663,412,-163,-854,13283,-14534,36557
1721673226.780134,355,-121,-823,9608,-11664,41973
1721673226.789643,299,-50,-843,4104,-7184,41860,31030,17437,-17700,84532,33487, 153245.800, 40.0105465,-105.2443069, 1624.815,1646.142, 36.850,24.220
1721673226.799114,241,-4,-855,-315,-2678,39725
1721673226.808585,205,-18,-881,-1163,1102,33118
1721673226.818056,221,12,-783,298,6186,23275
1721673226.827527,262,52,-738,1260,12897,17447
1721673226.836998,318,-22,-950,2162,18865,27571
1721673226.846469,314,-67,-888,2267,24570,40110
1721673226.855940,391,-22,-786,1899,30782,46313
1721673226.865418,449,-21,-800,1427,35770,58607,25927,18719,-18615,84533,33494
1721673226.874889,466,-79,-782,-210,37773,64058
1721673226.884360,487,-139,-771,-3290,37887,60733
1721673226.893831,471,-143,-849,-7140,37703,58493
1721673226.903302,302,145,-801,-13072,38150,53847
1721673226.912773,301,227,-912,-19495,40442,65003
1721673226.922244,169,72,-907,-22977,45710,102401
1721673226.931715,148,-4,-995,-24998,51222,121135
1721673226.941315,254,-51,-1080,-27177,58073,148592,15869,17010,-19824,84535,33496, 153245.900, 40.0106412,-105.2443191, 1629.483,1650.811, 33.277,22.764
1721673226.950786,324,-116,-1072,-29172,64303,174720
1721673226.960257,322,-95,-1107,-33355,67558,184616
1721673226.969728,334,-37,-1096,-38403,67401,186243
1721673226.979199,306,178,-991,-40696,65835,174658
1721673226.988670,281,169,-1098,-40670,64085,137401
1721673226.998141,150,9,-1200,-38578,60961,74235
1721673227.007612,168,-28,-1163,-36277,59937,17298
1721673227.016968,198,-38,-1072,-36146,63087,-14420,7708,14306,-19622,,, 153246.000, 40.0106930,-105.2443229, 1632.628,1653.956, 30.588,21.326
1721673227.026439,220,-55,-1037,-36776,65957,-31194
1721673227.035910,240,-67,-999,-36303,67296,-39489
1721673227.045381,247,-82,-946,-35043,67401,-40749
1721673227.054852,241,-135,-1018,-32970,66097,-37905
1721673227.064323,237,-193,-1120,-30651,64295,-33163
1721673227.073794,242,-213,-1092,-29260,63253,-18480
1721673227.083265,255,-217,-1043,-28533,62790,8706
1721673227.092743,267,-186,-1004,-28315,61643,39891,-54,9735,-18273,84530,33501, 153246.100, 40.0107172,-105.2443208, 1633.007,1654.335, 27.832,19.616
1721673227.102214,274,-133,-1015,-30073,59333,67016
1721673227.111685,273,-107,-1112,-32751,56288,85190
1721673227.121156,278,-93,-1124,-34055,52517,95025
1721673227.130627,295,-29,-1011,-35271,49122,100773
1721673227.140098,303,-8,-994,-36933,44633,100336
1721673227.149569,294,-44,-1029,-36496,38342,84892
1721673227.159040,279,-88,-1013,-35691,31937,60593
1721673227.168579,264,-101,-965,-37187,26425,41300,,,,84525,33505, 153246.200, 40.0107298,-105.2443151, 1632.957,1654.285, 25.778,18.577
1721673227.178050,249,-108,-955,-39768,21595,34842
1721673227.187521,238,-104,-955,-41256,17115,41125
1721673227.196992,232,-72,-1024,-41667,12958,58310
1721673227.206463,238,-16,-1101,-41676,8951,82040
1721673227.215934,253,67,-1044,-41475,4961,104807
1721673227.225405,264,139,-943,-41746,288,116025
1721673227.234876,262,162,-928,-40941,-5425,108053
1721673227.244354,244,154,-901,-38272,-11848,83457,-3472,3546,-17114,84535,33517
1721673227.253825,217,131,-891,-35113,-18052,52281
1721673227.263296,189,88,-943,-32375,-23424,23310
1721673227.272767,173,59,-897,-28822,-27607,4672
1721673227.282238,165,56,-866,-25392,-30669,-1112
1721673227.291709,156,42,-891,-23117,-33723,-140
1721673227.301180,116,-18,-912,-21271,-36768,3193
1721673227.310651,-36,-157,-916,-20396,-39515,10640
1721673227.320130,-890,-305,-777,-19775,-41353,32681,-3460,-250,-16906,,, 153246.300, 40.0107220,-105.2443124, 1632.741,1654.069, 24.351,18.029
1721673227.329601,-716,-372,-1021,-16327,-41467,77306
1721673227.339072,-178,271,-1136,-12512,-28648,126490
1721673227.348543,-373,160,-1060,-13545,-16652,188151
1721673227.358014,-490,-56,-1179,-8925,-15374,112848
1721673227.367485,-306,0,-1373,-3062,-11104,42770
1721673227.376956,-231,-85,-1296,-1373,-3885,11427
1721673227.386427,-36,-232,-919,35,350,-48344
1721673227.395905,209,-10,-691,2039,3893,-98902,-5645,506,-16168,84537,33524, 153246.400, 40.0107241,-105.2443115, 1632.920,1654.248, 23.106,17.445
1721673227.405377,262,-6,-704,1138,2983,-114477
1721673227.414849,311,113,-887,2967,-3229,-104598
1721673227.424321,341,168,-823,8567,-10063,-72170
1721673227.433793,309,35,-615,16862,-16809,-49753
1721673227.443265,269,-1,-555,24780,-23879,-27169
1721673227.452737,259,7,-628,31255,-30993,19197
1721673227.462209,259,60,-764,37870,-37170,71330
1721673227.471710,270,140,-969,45019,-42289,116751,-4394,1763,-16876,84532,33519, 153246.500, 40.0107275,-105.2443129, 1632.885,1654.213, 22.190,17.035
1721673227.481182,279,224,-1167,49350,-45938,140358
1721673227.490654,272,232,-1157,49945,-48379,128791
1721673227.500126,249,169,-1119,50488,-51459,79922
1721673227.509598,-61,-227,-638,51302,-56193,7708
1721673227.519070,-546,-670,-110,50287,-61180,-55300
1721673227.528542,-491,-562,-459,44004,-62773,-80054
1721673227.538014,-213,-350,-761,30573,-57960,-65398
1721673227.547486,-79,-236,-864,19600,-51512,-39052,-2783,3308,-17742,84537,33535
1721673227.556958,72,-61,-960,15532,-47837,-14438
1721673227.566430,169,99,-959,14333,-46209,8960
1721673227.575902,144,371,-831,14438,-47303,21297
1721673227.585374,84,504,-766,14805,-50890,18865
1721673227.594846,95,289,-805,15427,-55930,-11104
1721673227.604318,292,-39,-973,17579,-60507,-48729
1721673227.613790,320,157,-979,19355,-64199,-61242
1721673227.623322,319,-103,-1029,16897,-69195,-46752,,,,,, 153246.600, 40.0107245,-105.2443150, 1632.962,1654.290, 21.378,16.627
1721673227.632794,248,-285,-1060,16765,-74848,-41860
1721673227.642266,88,-105,-1000,18717,-80710,-57313
1721673227.651738,18,-208,-1023,15925,-84902,-62003
1721673227.661210,27,-213,-1091,15094,-85645,-65450
1721673227.670682,20,-60,-1118,12819,-83782,-70097
1721673227.680154,-2,12,-1125,8838,-80509,-66229
1721673227.689626,4,56,-1147,6335,-77009,-69965
1721673227.699036,29,62,-1154,6458,-73115,-68320,830,5780,-19183,84540,33539, 153246.700, 40.0107204,-105.2443182, 1633.340,1654.668, 20.686,16.256
1721673227.708511,97,-1,-1123,8505,-68775,-65547
1721673227.717986,176,-47,-1054,10588,-65337,-66159
1721673227.727461,257,-52,-1086,11192,-64882,-67480
1721673227.736936,374,-19,-1030,12032,-66588,-66728
1721673227.746411,444,-67,-903,14105,-71383,-67734
1721673227.755886,479,-165,-807,16477,-79914,-75530
1721673227.765361,540,-180,-984,17343,-89968,-85873
1721673227.774841,591,-212,-1100,18445,-100853,-95323,6634,9490,-20428,84532,33539, 153246.800, 40.0107199,-105.2443184, 1633.350,1654.678, 20.113,15.934
1721673227.784313,598,-290,-1180,20274,-112639,-111405
1721673227.793785,594,-391,-1284,20467,-122850,-133517
1721673227.803257,533,-386,-1377,15890,-131810,-154508
1721673227.812729,341,-269,-1382,5233,-139143,-166793
1721673227.822201,170,-210,-1375,-7437,-142065,-171702
1721673227.831673,24,-251,-1302,-18567,-137752,-178282
1721673227.841145,-138,-324,-1169,-28962,-128284,-182762
1721673227.850617,-212,-389,-1057,-39935,-114293,-180583,13134,7800,-21466,84527,33549
1721673227.860089,-164,-369,-850,-51642,-94772,-173303
1721673227.869561,-111,-178,-682,-64303,-72827,-164282
1721673227.879033,-75,37,-801,-73403,-51310,-153974
1721673227.888505,-15,173,-903,-72152,-30774,-141628
1721673227.897977,121,271,-833,-63621,-12049,-129404
1721673227.907449,227,432,-834,-52561,3176,-114004
1721673227.916921,264,544,-924,-39751,12538,-90152
1721673227.926392,270,483,-916,-23318,16467,-65100,10058,8935,-21051,84530,33551, 153246.900, 40.0107212,-105.2443188, 1633.262,1654.590, 19.584,15.623
1721673227.935864,245,351,-903,-4628,16126,-40732
1721673227.945336,247,218,-855,12390,13973,-14499
1721673227.954808,270,4,-784,27248,11768,8146
1721673227.964280,274,-240,-699,39087,9642,24902
1721673227.973752,287,-502,-636,45763,7953,37213
1721673227.983224,339,-660,-567,46988,6903,45902
1721673227.992696,411,-668,-544,43190,5293,54635
1721673228.002197,461,-588,-589,35902,2756,60803,,,,,, 153247.000, 40.0107195,-105.2443169, 1633.022,1654.350, 19.103,15.380
1721673228.011669,492,-480,-630,27720,-1400,61661
1721673228.021141,512,-394,-664,21158,-8374,62947
1721673228.030613,515,-359,-701,16354,-16363,63542
1721673228.040085,492,-394,-718,12907,-23389,60208
1721673228.049557,406,-486,-680,10019,-29680,53366
1721673228.059029,319,-543,-677,6125,-34537,42455
1721673228.068501,289,-486,-721,202,-36549,29067
1721673228.077942,260,-387,-715,-6667,-36960,19153,9088,9375,-20880,84533,33560, 153247.100, 40.0107194,-105.2443156, 1632.850,1654.178, 18.642,15.144
1721673228.087414,183,-289,-718,-12206,-37897,13037
1721673228.096886,135,-185,-735,-16467,-38308,8750
1721673228.106358,161,-126,-756,-19477,-36672,7577
1721673228.115830,197,-133,-744,-21131,-33793,7131
1721673228.125302,207,-123,-783,-22303,-31430,4978
1721673228.134774,245,-95,-830,-24272,-28980,1583
1721673228.144246,234,-70,-834,-25532,-27239,-727
1721673228.153748,193,-96,-862,-26005,-26399,-2564,9399,7537,-20892,84533,33560
1721673228.163219,216,-148,-923,-26941,-23547,-9687
1721673228.172690,281,-135,-939,-28490,-17982,-19644
1721673228.182161,317,-92,-948,-30012,-13230,-24702
1721673228.191632,361,-72,-940,-31228,-10474,-28210
1721673228.201103,403,-33,-936,-31998,-8523,-32725
1721673228.210574,400,32,-922,-32042,-8234,-34712
1721673228.220045,403,93,-908,-31001,-9389,-34055
1721673228.229523,422,92,-936,-28875,-10063,-34685,8508,5920,-20770,84535,33569, 153247.200, 40.0107185,-105.2443151, 1632.847,1654.175, 18.205,14.918
1721673228.238994,443,75,-977,-25891,-10168,-37582
1721673228.248465,468,36,-1032,-22575,-10912,-38150
1721673228.257936,490,-1,-1070,-19075,-11874,-38299
1721673228.267407,490,-7,-1081,-15487,-13694,-38334
1721673228.276878,474,13,-1069,-11768,-16853,-36418
1721673228.286349,417,-9,-1051,-7778,-20134,-33574
1721673228.295820,373,-64,-1029,-3701,-23004,-31990
1721673228.305298,350,-92,-988,-70,-25297,-28779,8636,6140,-20648,,, 153247.300, 40.0107180,-105.2443165, 1632.913,1654.241, 17.796,14.706
1721673228.314769,335,-122,-986,2503,-27484,-21823
1721673228.324240,301,-121,-1051,3658,-29033,-14700
1721673228.333711,294,-111,-1078,3903,-29882,-6729
1721673228.343182,284,-180,-1069,4594,-30415,4576
1721673228.352653,225,-254,-1105,4970,-30652,14498
1721673228.362124,180,-267,-1130,4332,-30415,25952
1721673228.371595,131,-289,-1136,3474,-29532,42735
1721673228.381134,83,-324,-1157,2547,-27204,59237,7476,4022,-20312,84528,33576, 153247.400, 40.0107181,-105.2443183, 1632.981,1654.309, 17.412,14.500
1721673228.390605,235,-280,-1147,753,-22339,74681
1721673228.400076,347,-345,-1093,-857,-17142,90308
1721673228.409547,240,-413,-1045,-1120,-16354,99391
1721673228.419018,7,-282,-1059,-2196,-17282,111098
1721673228.428489,-22,-18,-1090,-4970,-14735,137707
1721673228.437960,58,76,-978,-6912,-8042,165506
1721673228.447431,109,64,-1021,-6387,-1829,173766
1721673228.456909,83,134,-1047,-5801,2143,171745,,,,84526,33583, 153247.500, 40.0107195,-105.2443206, 1633.126,1654.454, 17.044,14.303
1721673228.466380,63,-20,-961,-5407,5390,181431
1721673228.475851,101,21,-942,-5381,8977,188842
1721673228.485322,246,114,-914,-9546,12757,206570
1721673228.494793,525,234,-857,-12145,13973,214830
1721673228.504264,529,-218,-848,-8968,10587,204242
1721673228.513735,524,-102,-812,-962,2791,185928
1721673228.523206,587,-16,-803,718,-2757,207042
1721673228.532684,600,-76,-802,2958,-7228,205983,5767,-555,-19616,84531,33587
1721673228.542155,767,-16,-780,8050,-12443,190758
1721673228.551626,682,-401,-757,12250,-15584,164955
1721673228.561097,405,-434,-777,18690,-21237,132772
1721673228.570568,258,-399,-718,16442,-26154,136027
1721673228.580039,246,-421,-583,6589,-24789,133691
1721673228.589510,313,-338,-491,-3762,-21753,125317
1721673228.598981,326,-221,-475,-11637,-20922,124433
1721673228.608460,294,-49,-535,-13956,-21980,129710,7006,-3912,-19073,,, 153247.600, 40.0107186,-105.2443216, 1632.962,1654.290, 16.542,14.054
1721673228.617931,252,101,-607,-12810,-23240,133586
1721673228.627402,239,215,-733,-8172,-22392,128852
1721673228.636873,287,69,-760,1873,-18419,116165
1721673228.646344,275,-112,-841,15007,-11305,89923
1721673228.655815,206,-38,-915,23582,-5443,77210
1721673228.665286,153,-31,-893,22619,-2433,85478
1721673228.674757,155,-86,-858,17413,-245,95331
1721673228.684235,270,-105,-767,11279,1032,107913,7458,-6152,-18591,84532,33592, 153247.700, 40.0107113,-105.2443187, 1632.299,1653.627, 15.750,13.691
1721673228.693706,416,-93,-691,4034,70,122990
1721673228.703177,489,-5,-689,-2222,-4647,138897
1721673228.712648,511,-36,-769,-6230,-11288,147070
1721673228.722119,513,-121,-823,-5661,-15234,136412
1721673228.731590,481,-82,-912,-4515,-18218,117985
1721673228.741061,487,100,-1045,-5687,-22680,105262
1721673228.750532,599,184,-1030,-6081,-29278,107073
1721673228.760040,651,253,-1091,-5871,-38343,104501,11303,-8087,-18597,84531,33601, 153247.800, 40.0107067,-105.2443181, 1632.092,1653.420, 15.161,13.357
1721673228.769512,602,-6,-1054,-2773,-45413,94386
1721673228.778984,443,17,-1108,1278,-50304,65546
1721673228.788456,475,229,-1120,5662,-53454,59867
1721673228.797928,418,183,-1050,7184,-59045,60130
1721673228.807400,118,33,-1103,12565,-60970,48860
1721673228.816872,-45,-11,-1036,16284,-55860,40932
1721673228.826344,-41,-39,-975,16468,-45588,45902
1721673228.835816,98,-24,-971,13913,-33285,50767,,,,84534,33603
1721673228.845288,265,5,-932,10772,-22890,54136
1721673228.854760,429,10,-920,7779,-15908,51441
1721673228.864232,525,-29,-983,6082,-12775,41317
1721673228.873704,599,-18,-994,5347,-13090,27378
1721673228.883176,589,77,-1001,3098,-15112,12477
1721673228.892648,528,256,-1062,560,-16328,-753
1721673228.902120,485,416,-1124,-910,-16783,-8287
1721673228.911591,520,518,-1103,919,-16809,-8960,12451,-9197,-18469,,, 153247.900, 40.0107025,-105.2443204, 1632.354,1653.682, 14.728,13.047
1721673228.921062,565,493,-995,5014,-17597,-1050
1721673228.930533,474,334,-965,9013,-20825,9598
1721673228.940004,414,219,-968,10693,-21954,16896
1721673228.949475,447,195,-940,7875,-20108,23283
1721673228.958946,484,235,-936,2407,-17290,26915
1721673228.968417,596,348,-944,-1925,-15339,26722
1721673228.977888,754,540,-980,-3613,-12889,22566
1721673228.987366,850,698,-1024,-367,-14858,19810,13781,-9997,-18164,84526,33605, 153248.000, 40.0107031,-105.2443204, 1632.058,1653.386, 14.346,12.730
1721673228.996837,850,772,-1094,7263,-20213,17806
1721673229.006308,759,749,-1111,16407,-26530,17010
1721673229.015779,640,654,-1082,24693,-32034,18882
1721673229.025250,538,532,-1015,31439,-35175,22583
1721673229.034721,460,415,-962,35359,-35893,26355
1721673229.044192,409,290,-863,35919,-34187,29828
1721673229.053663,362,209,-822,32192,-30625,29811
1721673229.063141,294,171,-845,24107,-25192,21726,15173,-9564,-17901,84533,33619, 153248.100, 40.0107041,-105.2443186, 1631.664,1652.992, 14.090,12.516
1721673229.072612,270,217,-835,13930,-17702,3088
1721673229.082083,303,206,-826,6344,-6764,-26618
1721673229.091554,396,390,-906,5828,5853,-61924
1721673229.101025,476,422,-818,6598,17491,-93074
1721673229.110496,501,333,-872,17072,24228,-119193
1721673229.119967,494,270,-916,23669,28857,-141024
1721673229.129438,466,225,-873,25550,31421,-150719
1721673229.138916,371,127,-844,23625,32173,-155479,8367,-8355,-16406,84529,33621
1721673229.148387,252,57,-898,18472,33451,-157815
1721673229.157858,148,56,-976,11069,38578,-159662
1721673229.167329,109,121,-978,3483,48816,-164763
1721673229.176800,260,205,-922,-1452,61985,-171920
1721673229.186271,523,191,-857,-1583,73666,-182149
1721673229.195742,712,181,-791,2660,76728,-194880
1721673229.205213,817,254,-786,5294,68468,-201837
1721673229.214691,931,381,-793,5723,54013,-202642,4376,-4248,-16955,,, 153248.200, 40.0107042,-105.2443152, 1631.104,1652.432, 13.857,12.306
1721673229.224162,969,359,-734,8698,33950,-203517
1721673229.233633,808,292,-612,17404,8373,-206955
1721673229.243104,641,339,-591,25795,-16713,-205853
1721673229.252575,531,195,-593,33364,-38990,-207822
1721673229.262046,416,-31,-701,42027,-55589,-215154
1721673229.271517,339,-131,-848,41108,-68224,-213378
1721673229.280988,266,-7,-888,27248,-78243,-200052
1721673229.290466,240,129,-830,7937,-83528,-185369,,,,84530,33623, 153248.300, 40.0107048,-105.2443180, 1631.171,1652.498, 13.665,12.111
1721673229.299937,122,398,-936,-4033,-83948,-176094
1721673229.309408,24,639,-1007,-8391,-80579,-168613
1721673229.318879,35,687,-999,-7673,-74419,-157684
1721673229.328350,47,613,-1048,-1102,-67533,-149328
1721673229.337821,3,638,-1029,4139,-61565,-138924
1721673229.347292,-26,636,-959,5863,-56499,-119044
1721673229.356763,-83,486,-799,8925,-50873,-98053
1721673229.366242,-146,308,-638,11384,-44818,-79310,7421,-1861,-19110,84527,33630, 153248.400, 40.0107050,-105.2443209, 1631.101,1652.429, 13.453,11.894
1721673229.375713,-119,207,-666,8663,-36794,-60270
1721673229.385184,-18,168,-750,2057,-27020,-39498
1721673229.394655,96,255,-892,-5320,-18603,-17649
1721673229.404126,228,357,-990,-10307,-12347,7061
1721673229.413597,345,375,-1025,-10683,-6712,24841
1721673229.423068,346,275,-1042,-7647,-1829,30065
1721673229.432539,308,262,-967,-3045,1723,33433
1721673229.442047,307,235,-896,245,4445,45281,7263,-3149,-19006,84541,33630
1721673229.451518,300,277,-856,1899,6641,56936
1721673229.460989,299,298,-824,2538,8067,66062
1721673229.470460,277,274,-792,6405,9765,70857
1721673229.479931,213,169,-832,12994,10412,79336
1721673229.489402,151,165,-910,17850,10535,93782
1721673229.498873,173,169,-992,18017,10666,119008
1721673229.508344,326,181,-1094,14805,11217,146825
1721673229.517822,558,204,-1011,8462,9432,175542,9191,-6433,-18457,,, 153248.500, 40.0107112,-105.2443410, 1632.766,1654.094, 13.193,11.657
1721673229.527294,783,306,-938,963,3430,201320
1721673229.536766,1173,692,-886,-2668,-8908,231166
1721673229.546238,1554,595,-663,1077,-26049,254546
1721673229.555710,1555,707,-770,14928,-46673,225242
1721673229.565182,1190,411,-785,42832,-68137,200296
1721673229.574654,879,318,-976,72127,-82565,154201
1721673229.584126,528,185,-941,97274,-87632,120225
1721673229.593598,276,395,-1087,117557,-84963,93598,12847,1483,-20477,84531,33639, 153248.600, 40.0107160,-105.2443503, 1633.339,1654.667, 12.928,11.381
1721673229.603070,97,162,-926,133674,-71330,85793
1721673229.612542,-243,22,-1129,148637,-53480,62956
1721673229.622014,-229,-21,-1148,153694,-27729,64601
1721673229.631486,-184,-197,-1105,145478,647,66631
1721673229.640958,31,-452,-1285,131460,28813,61573
1721673229.650430,499,-465,-1158,105280,53156,62632
1721673229.659902,907,-450,-953,61907,63437,63210
1721673229.669373,1113,-318,-925,14919,60760,52955,10229,-3173,-19421,84531,33650, 153248.700, 40.0107172,-105.2443502, 1633.092,1654.420, 12.682,11.155
1721673229.678844,1065,-42,-880,-30502,47040,30283
1721673229.688315,864,88,-858,-65686,27790,-4682
1721673229.697786,725,85,-894,-80858,14997,-55143
1721673229.707257,589,190,-883,-87202,6247,-99033
1721673229.716728,499,269,-916,-92968,-403,-120505
1721673229.726199,427,469,-880,-99216,-4218,-127138
1721673229.735670,342,660,-788,-105805,-7534,-119464
1721673229.745148,352,503,-806,-103757,-8077,-106689,,,,84533,33662
1721673229.754619,394,354,-835,-97553,-9302,-92689
1721673229.764090,401,326,-885,-99758,-14753,-71365
1721673229.773561,428,327,-915,-106242,-17964,-54933
1721673229.783032,452,285,-903,-110626,-19224,-52938
1721673229.792503,249,259,-864,-111833,-20440,-61548
1721673229.801974,-204,298,-909,-111081,-20222,-72914
1721673229.811445,-653,228,-912,-105778,-3754,-87999
1721673229.820923,-396,229,-1033,-93843,29505,-105604,8160,-10345,-16992,,, 153248.800, 40.0107154,-105.2443461, 1632.484,1653.811, 12.423,10.913
1721673229.830394,-29,298,-790,-80316,62300,-112333
1721673229.839865,190,340,-680,-69343,77350,-105622
1721673229.849336,256,484,-662,-61416,85828,-99015
1721673229.858807,314,609,-688,-53672,87780,-89067
1721673229.868278,401,538,-748,-39663,87377,-82522
1721673229.877749,532,407,-827,-21630,83466,-78287
1721673229.887220,744,421,-827,-8233,74287,-70167
1721673229.896698,741,421,-871,-315,56166,-55545,1635,-11175,-14886,84535,33664, 153248.900, 40.0107111,-105.2443403, 1631.744,1653.072, 12.169,10.658
1721673229.906169,588,363,-823,5732,36251,-48309
1721673229.915640,325,223,-799,12329,18716,-50960
1721673229.925111,24,75,-817,17448,7035,-58223
1721673229.934582,-133,50,-832,17710,3788,-64890
1721673229.944053,-51,114,-745,13012,7665,-67515
1721673229.953524,193,229,-733,9109,11007,-64899
1721673229.962995,415,368,-739,6703,9388,-58792
1721673229.972473,503,488,-669,6703,918,-50295,1501,-10290,-15264,84526,33669, 153249.000, 40.0107087,-105.2443329, 1630.929,1652.257, 11.883,10.383
1721673229.981944,468,541,-698,10562,-13467,-39612
1721673229.991415,217,512,-880,17115,-31317,-24194
1721673230.000886,-87,315,-1135,25892,-44984,-7657
1721673230.010357,-257,179,-1304,31877,-47443,4812
1721673230.019828,-224,30,-1320,31728,-38780,14761
1721673230.029299,-70,-18,-1245,27615,-25804,21105
1721673230.038770,130,147,-1255,18647,-14298,25646
1721673230.048279,410,43,-1162,11402,-5740,27090,2996,-11614,-15344,84539,33671
1721673230.057750,398,169,-1174,11078,-3894,26285
1721673230.067221,471,-23,-993,3474,-7324,23931
1721673230.076692,359,577,-1214,-2668,-12110,23808
1721673230.086163,421,437,-1166,-10517,-18113,30563
1721673230.095634,407,462,-1182,3763,-19933,31150
1721673230.105105,417,493,-1047,8147,-23827,37738
1721673230.114576,592,569,-994,17955,-26653,50058
1721673230.124054,657,225,-832,28097,-30022,56910,,,,,, 153249.100, 40.0107121,-105.2443270, 1630.656,1651.984, 11.598,10.098
1721673230.133525,633,430,-841,29960,-41493,55536
1721673230.142996,580,262,-780,31115,-50112,55825
1721673230.152467,558,160,-798,34694,-57558,34107
1721673230.161938,552,136,-835,33233,-63954,15636
1721673230.171409,557,203,-916,28359,-70289,-1234
1721673230.180880,538,263,-1056,22024,-75924,-16512
1721673230.190351,489,295,-1226,15444,-80290,-30179
1721673230.199829,438,230,-1294,8812,-82977,-37442,8081,-11108,-16680,84541,33680, 153249.200, 40.0107121,-105.2443240, 1630.683,1652.010, 11.354,9.890
1721673230.209300,358,201,-1310,-297,-84219,-37240
1721673230.218771,383,314,-1201,-14008,-82854,-28945
1721673230.228242,350,430,-1020,-27177,-80518,-18279
1721673230.237713,242,627,-877,-34133,-78619,-13012
1721673230.247184,113,835,-745,-31675,-73588,-12775
1721673230.256655,5,707,-673,-14525,-62913,-20257
1721673230.266126,-90,433,-655,12049,-47802,-34887
1721673230.275604,-70,162,-669,31194,-32192,-43077,11743,-11639,-16662,84529,33682, 153249.300, 40.0107146,-105.2443225, 1630.287,1651.615, 11.207,9.771
1721673230.285075,2,122,-678,37179,-17675,-42438
1721673230.294546,17,73,-712,30774,-6685,-35998
1721673230.304017,110,54,-928,20187,4068,-31238
1721673230.313488,89,-37,-1000,4183,16353,-25349
1721673230.322959,22,-112,-1144,-13063,23931,-14009
1721673230.332430,89,12,-1218,-36828,37336,-6834
1721673230.341901,136,158,-1165,-59053,50715,1855
1721673230.351380,199,395,-991,-73543,63735,297,7519,-14971,-13696,84527,33691
1721673230.360851,359,610,-792,-76632,76772,-9468
1721673230.370322,554,557,-781,-60392,87771,-27703
1721673230.379793,706,562,-659,-38447,88593,-46734
1721673230.389264,853,584,-635,-21700,79205,-49998
1721673230.398735,857,582,-620,-8837,62518,-45115
1721673230.408206,736,545,-645,-131,36715,-33303
1721673230.417677,549,505,-749,6283,11856,-23074
1721673230.427155,330,427,-871,13615,-8182,-15024,7708,-15411,-13299,84533,33694, 153249.400, 40.0107193,-105.2443208, 1629.630,1650.958, 11.066,9.607
1721673230.436626,141,274,-935,21823,-21140,-10378
1721673230.446097,77,150,-703,28805,-25095,-10833
1721673230.455568,34,-28,-700,32017,-23608,-11585
1721673230.465039,96,67,-770,27440,-22164,-8479
1721673230.474510,216,164,-913,18393,-21307,-1470
1721673230.483981,236,233,-1021,11734,-23398,-2275
1721673230.493452,186,245,-1017,7622,-26592,-7560
1721673230.502930,98,246,-946,5767,-28035,-11988,10241,-15930,-14825,,, 153249.500, 40.0107266,-105.2443206, 1629.226,1650.554, 10.898,9.426
1721673230.512401,71,429,-1067,3710,-28622,-8934
1721673230.521872,92,178,-578,7140,-27904,4226
1721673230.531343,51,441,-664,8523,-28490,12083
1721673230.540814,41,303,-643,8505,-28368,34387
1721673230.550285,68,471,-901,14184,-27458,36251
1721673230.559756,284,206,-757,19093,-27309,39532
1721673230.569227,361,379,-782,23345,-28788,32672
1721673230.578705,400,300,-742,20379,-34064,35323,,,,84532,33700, 153249.600, 40.0107335,-105.2443214, 1628.885,1650.213, 10.735,9.252
1721673230.588176,353,389,-1014,21709,-37415,30371
1721673230.597647,396,400,-1035,18358,-42464,29365
1721673230.607118,302,580,-1135,18778,-45815,25996
1721673230.616589,300,555,-970,20038,-47259,21323
1721673230.626060,28,483,-993,30179,-44529,15470
1721673230.635531,42,625,-1049,38107,-38177,6265
1721673230.645002,203,504,-845,50995,-25043,-832
1721673230.654511,68,384,-801,65792,-18944,-11323,13671,-12707,-17602,84534,33707
1721673230.663982,-26,330,-949,72013,-14727,-14324
1721673230.673453,40,358,-870,74918,-4165,-13379
1721673230.682924,78,325,-838,73220,2870,-11332
1721673230.692395,142,356,-870,68985,8636,-8952
1721673230.701866,166,220,-1012,63543,14463,-6099
1721673230.711337,260,322,-1025,56333,17535,-3947
1721673230.720808,432,399,-954,45142,18716,5223
1721673230.730286,539,410,-845,38229,17535,9091,13000,-9045,-18743,84535,33714, 153249.700, 40.0107394,-105.2443194, 1628.369,1649.697, 10.562,9.059
1721673230.739757,544,378,-868,36050,13650,9283
1721673230.749228,574,334,-976,35858,10727,4891
1721673230.758699,608,279,-957,35140,8916,-3509
1721673230.768170,605,289,-972,31474,4768,-13808
1721673230.777641,560,347,-1062,25244,1758,-25165
1721673230.787112,581,294,-1174,20729,1968,-39568
1721673230.796583,583,260,-1172,16083,1750,-54285
1721673230.806061,576,266,-1132,7062,-245,-61705,12542,-9454,-18841,,, 153249.800, 40.0107459,-105.2443177, 1627.883,1649.211, 10.396,8.871
1721673230.815532,533,279,-1063,-4462,-1995,-63254
1721673230.825003,475,287,-963,-17115,-4428,-60935
1721673230.834474,415,303,-839,-29531,-8103,-54810
1721673230.843945,384,299,-763,-40145,-11253,-47837
1721673230.853416,303,330,-660,-47941,-13502,-41904
1721673230.862887,-37,321,-585,-53462,-14945,-37275
1721673230.872358,22,333,-812,-53961,-5740,-40994
1721673230.881836,77,346,-782,-50566,8566,-46279,10491,-11682,-18493,84537,33712, 153249.900, 40.0107523,-105.2443160, 1627.615,1648.943, 10.247,8.712
1721673230.891307,183,335,-848,-47075,16458,-46848
1721673230.900778,346,355,-827,-43268,30791,-52378
1721673230.910249,480,381,-807,-37327,36102,-45903
1721673230.919720,621,434,-822,-34081,36496,-38492
1721673230.929191,705,664,-770,-29863,31202,-31430
1721673230.938662,685,622,-773,-21595,22365,-28587
1721673230.948133,594,608,-750,-5031,13361,-34852
1721673230.957642,457,626,-653,10229,4086,-38317,,,,84533,33714, 153250.000, 40.0107570,-105.2443181, 1628.010,1649.338, 10.108,8.589
1721673230.967113,319,539,-621,27475,-2739,-40513
1721673230.976584,192,445,-637,46104,-5163,-45273
1721673230.986055,207,90,-883,61408,-4603,-46953
1721673230.995526,161,-301,-972,70604,-2538,-45850
1721673231.004997,178,-144,-957,52684,-8085,-30153
1721673231.014468,222,53,-746,24868,-9022,-8864
1721673231.023939,263,294,-613,3142,-10780,-5644
1721673231.033417,249,410,-486,-3955,-11909,-8724,10089,-8514,-19091,84531,33725
1721673231.042888,235,279,-492,2197,-12618,-21447
1721673231.052359,236,290,-525,12382,-12749,-33618
1721673231.061830,156,297,-576,17212,-16573,-34738
1721673231.071301,24,271,-658,19023,-19522,-36015
1721673231.080772,-25,173,-795,19434,-18708,-39498
1721673231.090243,62,208,-864,17894,-14298,-42167
1721673231.099714,154,235,-936,13108,-11069,-36400
1721673231.109192,225,277,-992,6852,-8278,-30590,10430,-7238,-19421,,, 153250.100, 40.0107608,-105.2443184, 1628.394,1649.722, 9.960,8.445
1721673231.118663,233,311,-902,-8,-8112,-23512
1721673231.128134,239,232,-836,-5425,-10072,-16818
1721673231.137605,244,206,-858,-10045,-11839,-11533
1721673231.147076,232,236,-915,-18112,-15304,-3684
1721673231.156547,224,249,-927,-26328,-17807,1627
1721673231.166018,220,250,-912,-32628,-19110,1776
1721673231.175489,223,262,-922,-37493,-19014,-1182
1721673231.184998,230,281,-959,-40862,-17063,-6257,11218,-10162,-19110,84531,33737, 153250.200, 40.0107660,-105.2443177, 1628.398,1649.726, 9.774,8.296
1721673231.194469,240,304,-989,-43268,-13808,-12627
1721673231.203940,253,326,-1037,-45526,-10255,-18769
1721673231.213411,267,344,-1100,-48247,-6195,-23704
1721673231.222882,280,349,-1132,-51598,-1549,-26504
1721673231.232353,295,347,-1133,-55300,3036,-26950
1721673231.241824,311,355,-1153,-59115,7463,-25498
1721673231.251295,332,358,-1171,-62807,12355,-22864
1721673231.260773,355,353,-1167,-66307,17237,-20003,9210,-15936,-16992,84535,33737, 153250.300, 40.0107698,-105.2443230, 1629.772,1651.100, 9.550,8.164
1721673231.270244,374,340,-1145,-69501,21446,-17072
1721673231.279715,399,330,-1116,-72677,24858,-14027
1721673231.289186,427,327,-1098,-75670,27168,-10474
1721673231.298657,458,326,-1077,-78347,28306,-7368
1721673231.308128,488,326,-1069,-80368,28411,-5802
1721673231.317599,514,320,-1085,-81900,27440,-5793
1721673231.327070,533,311,-1093,-83151,25523,-6047
1721673231.336548,547,309,-1092,-84227,22251,-4874,8856,-22851,-13073,84536,33752
1721673231.346019,560,313,-1105,-85216,17578,-2433
1721673231.355490,585,325,-1133,-85750,12171,52
1721673231.364961,616,352,-1209,-85575,6011,2353
1721673231.374432,640,372,-1305,-84717,-613,4672
1721673231.383903,639,383,-1381,-83352,-8024,7472
1721673231.393374,588,375,-1401,-81497,-15602,11296
1721673231.402845,488,337,-1348,-79563,-22672,16135
1721673231.412323,380,294,-1250,-77980,-28403,21157,,,,,, 153250.400, 40.0107720,-105.2443287, 1631.462,1652.790, 9.340,8.034
1721673231.421794,285,257,-1139,-77105,-31649,26486
1721673231.431265,217,227,-1040,-76956,-32113,30511
1721673231.440736,163,196,-951,-77078,-30083,31841
1721673231.450207,122,165,-877,-77017,-25839,30012
1721673231.459678,92,135,-809,-76763,-20003,25882
1721673231.469149,71,117,-749,-76413,-13545,21175
1721673231.478620,58,120,-724,-75862,-7079,17237
1721673231.488098,51,133,-726,-74908,-560,13956,11370,-28887,-8374,84526,33750, 153250.500, 40.0107715,-105.2443290, 1632.435,1653.763, 9.120,7.870
1721673231.497569,55,152,-726,-73403,5792,10867
1721673231.507040,70,174,-733,-71041,11646,8618
1721673231.516511,98,201,-771,-67777,16975,6527
1721673231.525982,133,223,-807,-63376,22190,4270
1721673231.535453,165,234,-821,-57855,26486,1811
1721673231.544924,193,239,-816,-51450,29680,-464
1721673231.554395,216,242,-813,-44520,31885,-2389
1721673231.563873,231,240,-807,-37406,33215,-3667,10174,-32525,-4382,84537,33755, 153250.600, 40.0107675,-105.2443282, 1632.451,1653.779, 9.000,7.769
1721673231.573344,237,235,-794,-30301,33713,-4489
1721673231.582815,233,228,-784,-23371,33320,-4699
1721673231.592286,220,216,-758,-16826,32243,-4200
1721673231.601757,206,195,-728,-10823,30213,-3045
1721673231.611228,193,178,-706,-5320,27501,-1514
1721673231.620699,189,168,-706,-428,24220,280
1721673231.630170,192,163,-726,4270,20615,2038
1721673231.639649,196,148,-751,9083,16808,2931,9881,-33544,-4064,84529,33764
1721673231.649120,198,125,-759,14009,13055,1820
1721673231.658591,193,108,-772,19093,9283,-858
1721673231.668062,184,95,-792,24185,5967,-4428
1721673231.677533,172,85,-810,29147,3045,-8479
1721673231.687004,156,76,-829,33959,105,-12522
1721673231.696475,143,63,-836,38282,-2512,-16625
1721673231.705946,133,51,-846,42105,-5102,-20344
1721673231.715424,123,47,-861,45282,-7665,-23380,9777,-31707,-7629,,, 153250.700, 40.0107480,-105.2443236, 1631.809,1653.136, 8.725,7.573
1721673231.724895,119,50,-868,47959,-10054,-25472
1721673231.734366,123,56,-892,50339,-12513,-27458
1721673231.743837,118,55,-939,52562,-14534,-30879
1721673231.753308,110,34,-946,54933,-15488,-36322
1721673231.762779,104,12,-927,57365,-16520,-42219
1721673231.772250,98,9,-944,59527,-17649,-46900
1721673231.781721,91,14,-978,61049,-18244,-50549
1721673231.791229,90,15,-988,62090,-18384,-54093,8380,-27697,-11492,84531,33764, 153250.800, 40.0107367,-105.2443216, 1631.371,1652.699, 8.522,7.414
1721673231.800701,102,15,-997,62677,-18620,-57392
1721673231.810173,128,19,-1035,62790,-18612,-60454
1721673231.819645,156,14,-1099,62379,-18174,-63805
1721673231.829117,192,5,-1139,61863,-17229,-67813
1721673231.838589,236,7,-1179,61320,-16555,-70499
1721673231.848061,281,28,-1240,60437,-16275,-70963
1721673231.857533,325,50,-1309,59500,-15960,-70403
1721673231.867005,354,58,-1349,58818,-15672,-70893,,,,84537,33764, 153250.900, 40.0107346,-105.2443228, 1631.521,1652.849, 8.383,7.277
1721673231.876477,363,51,-1350,58617,-15680,-72223
1721673231.885949,356,41,-1332,58424,-16100,-72783
1721673231.895421,339,33,-1307,57532,-16669,-70727
1721673231.904893,316,13,-1261,55869,-17238,-66885
1721673231.914365,296,-22,-1198,53655,-17702,-63630
1721673231.923837,290,-45,-1155,51188,-17772,-61872
1721673231.933309,287,-43,-1157,48668,-17168,-60227
1721673231.942780,283,-25,-1164,46629,-15523,-60087,6842,-23022,-14288,84530,33773
1721673231.952251,271,-21,-1145,45588,-12959,-62677
1721673231.961722,250,-37,-1095,45553,-9529,-68670
1721673231.971193,219,-67,-1015,45938,-5390,-77245
1721673231.980664,187,-96,-922,46060,-1287,-85969
1721673231.990135,161,-117,-833,45220,2362,-92960
1721673231.999606,149,-124,-772,42875,5171,-97099
1721673232.009077,145,-123,-741,39174,6930,-98482
1721673232.018555,150,-111,-716,34362,7980,-97239,3057,-18634,-16369,,, 153251.000, 40.0107419,-105.2443252, 1632.026,1653.354, 8.209,7.111
1721673232.028026,162,-85,-708,29173,8181,-94159
1721673232.037497,190,-47,-726,24255,7770,-90668
1721673232.046968,224,-11,-765,20108,7052,-88087
1721673232.056439,261,14,-807,17282,6037,-87754
1721673232.065910,297,23,-833,15759,4611,-89530
1721673232.075381,328,28,-856,14989,2266,-91945
1721673232.084852,346,45,-902,14167,-770,-93293
1721673232.094330,349,71,-954,12915,-4384,-91884,646,-15527,-17126,84537,33789, 153251.100, 40.0107511,-105.2443264, 1632.616,1653.943, 8.043,6.950
1721673232.103801,344,85,-981,11375,-8348,-88139
1721673232.113272,331,84,-983,10107,-12425,-83650
1721673232.122743,308,76,-976,9118,-16354,-79004
1721673232.132214,285,63,-972,8287,-19880,-73544
1721673232.141685,267,54,-966,7464,-22672,-67480
1721673232.151156,252,48,-965,6589,-24623,-60892
1721673232.160627,237,38,-956,5828,-25673,-54845
1721673232.170105,221,27,-933,5347,-25769,-49884,,,,84532,33793, 153251.200, 40.0107639,-105.2443290, 1632.899,1654.227, 7.906,6.769
1721673232.179576,205,16,-918,5137,-25209,-45702
1721673232.189047,192,13,-892,5093,-23853,-42000
1721673232.198518,187,4,-883,4962,-22278,-38404
1721673232.207989,183,-2,-893,4795,-20309,-35823
1721673232.217460,178,-4,-903,4883,-17833,-33565
1721673232.226931,174,-7,-901,4935,-15497,-30774
1721673232.236402,178,-4,-899,4892,-13213,-27502
1721673232.245880,189,-6,-928,4769,-10684,-24115,604,-13922,-17803,84539,33795
1721673232.255351,207,-20,-942,4848,-7692,-22147
1721673232.264822,228,-47,-939,4804,-5005,-21079
1721673232.274293,246,-71,-927,4209,-2459,-20379
1721673232.283764,260,-76,-914,2940,-114,-19233
1721673232.293235,273,-63,-919,1199,1662,-17142
1721673232.302706,288,-39,-936,-533,3290,-15077
1721673232.312177,303,-16,-964,-1820,4882,-13484
1721673232.321686,310,0,-968,-2563,6466,-12513,-451,-13610,-17779,,, 153251.300, 40.0107728,-105.2443333, 1632.975,1654.303, 7.803,6.625
1721673232.331157,305,15,-944,-2563,7708,-11883
1721673232.340628,308,28,-928,-2030,8522,-10789
1721673232.350099,317,45,-934,-1260,9135,-9275
1721673232.359570,332,56,-925,-175,9563,-7552
1721673232.369041,356,69,-922,1269,9581,-5898
1721673232.378512,389,72,-940,2573,9143,-4139
1721673232.387983,433,64,-960,3387,8207,-2424
1721673232.397461,476,53,-999,3387,5731,647,-1934,-13958,-17156,84529,33798, 153251.400, 40.0107784,-105.2443362, 1633.020,1654.348, 7.691,6.470
1721673232.406932,515,49,-1055,2179,2030,6282
1721673232.416403,542,64,-1116,-122,-2608,15015
1721673232.425874,557,75,-1167,-2992,-7989,25733
1721673232.435345,560,61,-1210,-6063,-13615,35446
1721673232.444816,544,20,-1209,-8828,-18227,41405
1721673232.454287,511,-28,-1145,-11025,-21569,42822
1721673232.463758,471,-61,-1070,-13238,-23914,41133
1721673232.473236,431,-75,-1022,-15662,-24947,36741,-286,-16223,-16516,84536,33800, 153251.500, 40.0107739,-105.2443384, 1633.257,1654.584, 7.592,6.377
1721673232.482707,389,-66,-986,-18182,-24168,29190
1721673232.492178,354,-33,-955,-20405,-22269,20195
1721673232.501649,330,15,-951,-22102,-19513,11278
1721673232.511120,313,70,-956,-22382,-15593,1155
1721673232.520591,312,110,-968,-21078,-10597,-10492
1721673232.530062,315,114,-975,-18226,-4953,-24124
1721673232.539533,319,111,-947,-14157,735,-39069
1721673232.549011,319,116,-937,-9931,5530,-51223,-3363,-15405,-15203,84532,33814
1721673232.558482,329,116,-944,-6247,9590,-60384
1721673232.567953,342,113,-943,-3307,12678,-67122
1721673232.577424,351,115,-930,-822,14796,-71409
1721673232.586895,360,128,-901,1558,16476,-74340
1721673232.596366,371,150,-899,4069,17998,-76930
1721673232.605837,374,172,-924,6572,19783,-79713
1721673232.615308,376,176,-928,9074,21700,-82443
1721673232.624787,380,154,-914,11279,23012,-84473,-7397,-12487,-14068,,, 153251.600, 40.0107704,-105.2443383, 1633.489,1654.817, 7.507,6.321
1721673232.634258,378,123,-910,12329,23152,-85059
1721673232.643729,368,94,-935,11472,22146,-82583
1721673232.653200,343,62,-952,8890,20475,-77342
1721673232.662671,312,24,-933,5084,18305,-69808
1721673232.672142,282,-11,-892,377,16073,-60655
1721673232.681613,265,-35,-850,-4366,14315,-51608
1721673232.691084,265,-48,-847,-8653,12993,-44153
1721673232.700562,268,-53,-893,-12390,11961,-39463,,,,84535,33820, 153251.700, 40.0107648,-105.2443384, 1633.602,1654.929, 7.402,6.254
1721673232.710033,271,-40,-941,-15487,11121,-36322
1721673232.719504,287,-16,-973,-17683,10018,-31737
1721673232.728975,315,-1,-1014,-18690,8505,-27519
1721673232.738446,335,0,-1069,-18760,7192,-26355
1721673232.747917,328,-2,-1096,-18025,6343,-26828
1721673232.757388,308,0,-1079,-15837,6168,-28202
1721673232.766859,286,0,-1055,-12241,6650,-31037
1721673232.776337,265,5,-1045,-8058,7848,-34974,-9411,-11950,-12579,84537,33829, 153251.800, 40.0107582,-105.2443393, 1633.705,1655.032, 7.301,6.190
1721673232.785808,244,-1,-1020,-3902,10333,-39262
1721673232.795279,246,-12,-985,175,13475,-44468
1721673232.804750,266,-22,-985,3877,16266,-49709
1721673232.814221,281,-21,-973,6484,19136,-54469
1721673232.823692,291,-4,-945,8365,21682,-58013
1721673232.833163,293,33,-965,9450,23633,-60717
1721673232.842634,275,52,-972,9424,25996,-62510
1721673232.852112,258,44,-923,8610,29023,-63902,-12915,-8416,-10766,84529,33829
1721673232.861583,263,34,-873,7560,31858,-64295
1721673232.871054,294,33,-853,5758,34352,-63359
1721673232.880525,337,39,-849,3019,36128,-61732
1721673232.889996,373,26,-809,-8,37091,-60192
1721673232.899467,411,21,-754,-2887,37126,-60130
1721673232.908938,450,33,-729,-5617,35822,-60498
1721673232.918409,489,47,-709,-8575,32978,-61382
1721673232.927918,530,77,-710,-11418,28647,-62887,-16015,-5340,-8972,84532,33836, 153251.900, 40.0107544,-105.2443378, 1633.254,1654.582, 7.211,6.117
1721673232.937389,569,113,-752,-14052,23117,-63342
1721673232.946860,592,155,-826,-16423,16913,-63280
1721673232.956331,578,181,-900,-18663,10097,-62082
1721673232.965802,519,183,-927,-21105,3193,-59045
1721673232.975273,414,137,-890,-23852,-3229,-54390
1721673232.984744,323,91,-810,-26678,-8330,-49919
1721673232.994215,253,71,-776,-29601,-11410,-43374
1721673233.003693,193,56,-764,-32173,-12093,-36899,-16668,-4974,-8752,,, 153252.000, 40.0107508,-105.2443382, 1632.293,1653.621, 7.113,5.991
1721673233.013164,159,32,-745,-32821,-10763,-34169
1721673233.022635,147,19,-752,-31736,-8120,-34782
1721673233.032106,148,15,-778,-29933,-4384,-37004
1721673233.041577,104,141,-838,-27868,-578,-39279
1721673233.051048,-108,706,-922,-26171,2310,-38492
1721673233.060519,-106,686,-818,-28087,2073,-7403
1721673233.069990,-48,396,-902,-25410,2196,33118
1721673233.079468,-41,532,-810,-19915,6265,47451,,,,84536,33845, 153252.100, 40.0107403,-105.2443351, 1630.662,1651.990, 6.982,5.860
1721673233.088939,-47,375,-735,-16878,10710,66631
1721673233.098410,91,300,-716,-10867,14297,78557
1721673233.107881,225,273,-716,-533,21927,66272
1721673233.117352,285,180,-726,15584,30073,39786
1721673233.126823,461,-15,-733,38098,36373,1863
1721673233.136294,469,-15,-799,62003,41685,-41659
1721673233.145765,373,-128,-623,82075,42945,-82802
1721673233.155243,260,-153,-1021,98648,37747,-118475,-18914,-3765,-7647,84539,33850, 153252.200, 40.0107394,-105.2443355, 1630.211,1651.539, 6.905,5.793
1721673233.164714,153,-6,-1276,108632,34772,-145058
1721673233.174185,-179,-293,-1874,102935,32156,-120033
1721673233.183656,-251,-679,-1953,76204,24648,-58162
1721673233.193127,218,-441,-1220,33233,8023,79231
1721673233.202598,463,-129,-1042,-262,-9879,156117
1721673233.212069,359,208,-964,-23905,-9048,101508
1721673233.221540,297,436,-970,-39016,-3439,46768
1721673233.231018,222,372,-962,-39392,-1260,20851,-20062,-2862,-7434,84534,33857
1721673233.240489,198,207,-944,-26460,-3850,-858
1721673233.249960,195,145,-884,-12048,-3527,-15024
1721673233.259431,116,75,-860,-4602,2353,-20843
1721673233.268902,183,77,-981,-848,5696,-28692
1721673233.278373,131,32,-986,3885,6090,-27834
1721673233.287844,92,17,-997,9135,5845,-27484
1721673233.297315,78,-13,-982,14114,6396,-26775
1721673233.306793,114,-67,-950,18034,7271,-26408,-21282,-128,-7336,,, 153252.300, 40.0107402,-105.2443369, 1630.056,1651.384, 6.857,5.758
1721673233.316264,162,-200,-1020,19845,8618,-28420
1721673233.325735,226,-319,-1132,16065,9668,-33714
1721673233.335206,303,-375,-1214,7097,8408,-39183
1721673233.344677,287,-370,-1230,-4593,3920,-42508
1721673233.354148,235,-292,-1197,-16467,-3378,-44660
1721673233.363619,207,-118,-1271,-26617,-10964,-43234
1721673233.373090,105,-35,-1169,-31640,-17544,-38465
1721673233.382569,13,-63,-1144,-28061,-23468,-34082,-20373,2630,-8795,84532,33863, 153252.400, 40.0107337,-105.2443348, 1629.493,1650.821, 6.744,5.703
1721673233.392040,-75,-111,-1131,-20886,-28525,-34922
1721673233.401511,-108,-115,-1078,-12941,-31535,-37634
1721673233.410982,-89,-109,-1007,-5398,-33758,-42525
1721673233.420453,-45,-150,-983,2030,-36689,-49324
1721673233.429924,9,-206,-992,8777,-41449,-58415
1721673233.439395,68,-228,-982,14105,-47242,-65100
1721673233.448866,129,-250,-958,17395,-53953,-67052
1721673233.458374,156,-295,-951,19207,-62449,-67069,-14910,8502,-13299,84539,33861, 153252.500, 40.0107308,-105.2443339, 1629.129,1650.456, 6.658,5.660
1721673233.467845,126,-325,-972,20169,-72135,-66124
1721673233.477316,100,-362,-1112,20099,-80667,-61487
1721673233.486787,11,-312,-1135,18944,-86800,-55974
1721673233.496258,-98,-240,-1111,18472,-91368,-53962
1721673233.505729,-164,-183,-1074,20335,-93870,-57068
1721673233.515200,-164,-170,-1074,24474,-94299,-65363
1721673233.524671,-126,-150,-1059,30092,-93065,-76983
1721673233.534149,-89,-140,-1006,36208,-90012,-86485,,,,84533,33872
1721673233.543620,-38,-155,-976,42210,-85549,-93380
1721673233.553091,48,-178,-965,47644,-80150,-97913
1721673233.562562,127,-231,-967,51284,-74165,-98473
1721673233.572033,158,-273,-969,52334,-68767,-96075
1721673233.581504,152,-298,-943,50908,-64427,-92637
1721673233.590975,135,-289,-905,46559,-60480,-89312
1721673233.600446,120,-253,-856,40268,-55484,-84534
1721673233.609924,96,-226,-825,33110,-49140,-79617,-8514,16821,-15747,,, 153252.600, 40.0107307,-105.2443337, 1628.798,1650.126, 6.598,5.609
1721673233.619396,58,-212,-825,26329,-41860,-77027
1721673233.628868,31,-197,-832,20230,-33023,-76064
1721673233.638340,35,-153,-831,14517,-22007,-74113
1721673233.647812,72,-101,-826,9687,-9853,-71112
1721673233.657284,102,-68,-830,6449,1566,-68915
1721673233.666756,132,-70,-842,4515,11620,-68005
1721673233.676228,158,-93,-856,2870,20291,-68093
1721673233.685700,168,-106,-860,840,27597,-67962,-7000,21051,-14978,84528,33877, 153252.700, 40.0107230,-105.2443305, 1627.913,1649.241, 6.512,5.544
1721673233.695171,155,-111,-832,-2213,33556,-67270
1721673233.704642,148,-110,-793,-5950,38578,-66597
1721673233.714113,148,-115,-762,-9415,43540,-65958
1721673233.723584,153,-119,-733,-12687,48343,-65687
1721673233.733055,243,-95,-780,-16450,52587,-64103
1721673233.742526,296,-137,-897,-20133,55195,-56114
1721673233.751997,307,-135,-977,-22706,54425,-52710
1721673233.761475,280,-112,-966,-24622,50653,-52885,-8270,22705,-13458,84540,33886, 153252.800, 40.0107093,-105.2443237, 1626.905,1648.233, 6.382,5.459
1721673233.770946,245,-55,-949,-26145,45937,-53585
1721673233.780417,240,15,-872,-26013,40740,-55808
1721673233.789888,245,35,-815,-24316,35568,-58748
1721673233.799359,244,29,-802,-21350,30878,-60594
1721673233.808830,245,41,-801,-18243,26888,-60795
1721673233.818301,278,33,-866,-16161,23835,-59107
1721673233.827772,296,23,-939,-14376,21341,-52737
1721673233.837250,283,-2,-981,-12433,17596,-47338,-6994,24914,-13208,84529,33893
1721673233.846721,241,-20,-1013,-10780,12722,-43619
1721673233.856192,198,-41,-1043,-8793,7428,-40644
1721673233.865663,170,-41,-1077,-6930,2283,-39577
1721673233.875134,190,-17,-1041,-5941,-1610,-37975
1721673233.884605,177,-1,-957,-6107,-4927,-35438
1721673233.894076,129,-3,-904,-6650,-8715,-33627
1721673233.903547,99,-32,-901,-7306,-13370,-31089
1721673233.913025,84,-92,-952,-8785,-19312,-29252,-3540,25933,-14343,,, 153252.900, 40.0106974,-105.2443195, 1625.743,1647.071, 6.251,5.376
1721673233.922496,52,-148,-1024,-10526,-25620,-29873
1721673233.931967,15,-167,-1061,-12678,-30407,-31675
1721673233.941438,-2,-157,-1030,-15811,-32839,-31133
1721673233.950909,37,-117,-1029,-18777,-33014,-29155
1721673233.960380,97,-43,-1040,-20168,-31789,-26513
1721673233.969851,74,-11,-1009,-19416,-30258,-23039
1721673233.979322,4,16,-982,-15855,-29488,-19907
1721673233.988831,-45,32,-965,-10045,-29619,-20047,,,,84541,33891, 153253.000, 40.0106888,-105.2443166, 1624.792,1646.120, 6.152,5.307
1721673233.998302,-73,28,-952,-2598,-29803,-21184
1721673234.007773,-122,25,-952,5583,-29042,-21622
1721673234.017244,-91,84,-778,13685,-27405,-20974
1721673234.026715,-78,15,-856,21569,-26207,-19399
1721673234.036186,-94,-79,-990,29287,-27187,-21788
1721673234.045657,-150,-82,-1092,36313,-26775,-27283
1721673234.055128,-245,-39,-949,41160,-23573,-23450
1721673234.064606,-257,95,-718,43322,-19618,-9529,-726,29241,-13775,84539,33900, 153253.100, 40.0106814,-105.2443133, 1623.761,1645.089, 6.055,5.232
1721673234.074077,-97,101,-696,42604,-21000,34125
1721673234.083548,68,-12,-846,40828,-26907,80220
1721673234.093019,189,-100,-1020,43164,-29138,95156
1721673234.102490,197,-117,-1136,50322,-24728,72730
1721673234.111961,100,-150,-1257,59990,-17754,24395
1721673234.121432,34,-212,-1295,66212,-13300,-15322
1721673234.130903,72,-242,-1325,67953,-11402,-35534
1721673234.140381,105,-214,-1371,67078,-10255,-35482,482,34204,-10711,84529,33904
1721673234.149852,92,-193,-1401,64549,-7989,-27388
1721673234.159323,89,-169,-1399,60270,-4542,-20257
1721673234.168794,97,-116,-1313,55309,-350,-12705
1721673234.178265,100,-78,-1199,51240,4278,-6773
1721673234.187736,81,-37,-1094,49447,7988,-4157
1721673234.197207,67,-9,-1007,49910,10561,-3045
1721673234.206678,47,-2,-922,50873,13343,-1680
1721673234.216156,-9,-15,-849,51757,16555,-324,750,38543,-6176,,, 153253.200, 40.0106765,-105.2443121, 1623.129,1644.457, 5.996,5.174
1721673234.225627,-48,-38,-803,52649,19346,-490
1721673234.235098,-69,-70,-800,53288,21875,-1619
1721673234.244569,-66,-105,-845,52229,25585,-1190
1721673234.254040,-86,-101,-956,49237,29968,78
1721673234.263511,-68,-65,-1015,45115,35603,2905
1721673234.272982,-21,-12,-968,40338,43531,8750
1721673234.282453,-3,32,-869,35525,53453,15785
1721673234.292023,36,85,-774,31982,63035,22277,-2819,40289,-1214,84531,33913, 153253.300, 40.0106730,-105.2443099, 1622.552,1643.880, 5.948,5.127
1721673234.301494,78,143,-687,29532,70621,29260
1721673234.310965,124,167,-590,27274,75958,38281
1721673234.320436,232,117,-554,24177,77962,48335
1721673234.329907,315,43,-579,21307,76746,49332
1721673234.339378,354,-79,-647,18944,73946,36610
1721673234.348849,313,-240,-787,13449,68005,20825
1721673234.358320,300,-270,-904,2643,59482,12573
1721673234.367706,346,-209,-956,-12512,51546,18121,,,,84537,33913, 153253.400, 40.0106696,-105.2443048, 1621.653,1642.981, 5.889,5.062
1721673234.377177,334,-131,-998,-28901,45745,27413
1721673234.386648,300,-39,-996,-42428,39593,29426
1721673234.396119,280,15,-974,-52298,31928,25558
1721673234.405590,188,111,-939,-58257,24675,20930
1721673234.415061,99,167,-885,-60077,18628,16922
1721673234.424532,58,171,-827,-60016,14061,7761
1721673234.434003,86,174,-798,-58108,12792,-3019
1721673234.443482,166,206,-801,-54057,15233,-8960,-3460,38806,-1599,84529,33922
1721673234.452954,215,191,-807,-49245,20405,-5784
1721673234.462426,233,125,-865,-44371,24088,-989
1721673234.471898,236,102,-952,-40232,22907,-1453
1721673234.481370,216,76,-974,-37432,17430,-4498
1721673234.490842,242,77,-1008,-35621,10351,-9179
1721673234.500314,315,151,-1016,-33722,4357,-11437
1721673234.509786,385,195,-967,-32060,673,-9573
1721673234.519287,461,197,-953,-30493,-2345,-6904,-2429,38171,-2734,,, 153253.500, 40.0106677,-105.2443016, 1620.963,1642.291, 5.843,4.977
1721673234.528759,550,199,-968,-27571,-7403,-3413
1721673234.538231,614,141,-1001,-24132,-16652,192
1721673234.547703,627,63,-1138,-21376,-30730,682
1721673234.557175,602,26,-1293,-19258,-47093,2152
1721673234.566647,542,28,-1358,-18978,-61723,5267
1721673234.576119,479,77,-1333,-20702,-70683,8347
1721673234.585591,426,145,-1261,-21507,-74305,13991
1721673234.595062,348,155,-1217,-19276,-75093,21385,1239,37976,-5004,84539,33925, 153253.600, 40.0106647,-105.2442977, 1620.576,1641.904, 5.787,4.889
1721673234.604534,273,125,-1224,-14280,-74034,25322
1721673234.614006,233,90,-1260,-7988,-71322,25821
1721673234.623478,233,88,-1237,-2091,-66614,26442
1721673234.632950,247,70,-1175,2958,-61040,28568
1721673234.642422,246,56,-1150,7490,-56149,29592
1721673234.651894,269,74,-1077,11760,-52168,31202
1721673234.661366,340,103,-941,15365,-49307,34510
1721673234.670838,405,92,-894,19399,-48493,36356,4132,39324,-4980,84536,33929, 153253.700, 40.0106620,-105.2442956, 1620.357,1641.685, 5.735,4.809
1721673234.680310,410,37,-969,24614,-51617,36890
1721673234.689782,343,-25,-1012,29409,-58205,34335
1721673234.699254,289,-35,-968,31378,-65153,29977
1721673234.708726,243,-42,-951,30582,-71138,28787
1721673234.718198,187,-70,-989,29470,-75548,24753
1721673234.727670,156,-75,-1024,28525,-77867,16406
1721673234.737142,158,-40,-1007,26408,-76983,11331
1721673234.746613,139,32,-952,23118,-73037,11340,6329,40698,-4333,84532,33936
1721673234.756084,110,76,-906,19828,-66457,15636
1721673234.765555,90,91,-848,17535,-57479,21043
1721673234.775026,78,71,-817,16862,-46489,25891
1721673234.784497,88,64,-841,17570,-34335,30607
1721673234.793968,136,57,-855,18218,-21175,37511
1721673234.803439,195,11,-883,17702,-8934,42533
1721673234.812910,225,-40,-948,16494,866,43540
1721673234.822388,273,-18,-962,13904,7918,42831,,,,,, 153253.800, 40.0106604,-105.2442933, 1620.383,1641.711, 5.699,4.765
1721673234.831859,345,-15,-947,10343,11331,42455
1721673234.841330,415,-39,-954,7342,10001,38780
1721673234.850801,460,-41,-981,4839,4602,32970
1721673234.860272,416,-28,-1008,1960,-3255,29960
1721673234.869743,245,-38,-1007,-1697,-11769,27335
1721673234.879214,111,-18,-926,-6632,-16179,23485
1721673234.888685,35,-2,-866,-12092,-12557,27081
1721673234.898163,-4,5,-830,-16073,-2345,34457,5590,40631,-4357,84532,33938, 153253.900, 40.0106588,-105.2442909, 1620.390,1641.718, 5.663,4.727
1721673234.907634,47,28,-800,-19031,10307,39733
1721673234.917105,96,-13,-852,-22015,23100,45648
1721673234.926576,118,-36,-918,-24981,33783,47608
1721673234.936047,150,-36,-964,-28665,40433,45080
1721673234.945518,199,-1,-979,-33381,44563,42385
1721673234.954989,241,20,-1018,-37677,47722,40110
1721673234.964460,286,50,-1025,-41107,49892,36715
1721673234.973938,338,56,-985,-43811,51126,35822,1593,37988,-5761,84528,33950, 153254.000, 40.0106574,-105.2442902, 1620.486,1641.814, 5.633,4.701
1721673234.983409,376,48,-955,-45885,50916,37003
1721673234.992880,357,20,-958,-46751,49061,40547
1721673235.002351,285,-32,-973,-47425,45998,44835
1721673235.011822,173,-64,-961,-48965,42078,47477
1721673235.021293,75,-78,-985,-51450,38885,47976
1721673235.030764,39,-2,-976,-54512,38963,50706
1721673235.040235,57,69,-959,-56183,41781,56175
1721673235.049744,98,89,-979,-54503,43601,54442,-2423,34381,-7360,84531,33954
1721673235.059215,200,66,-998,-49463,42778,46567
1721673235.068686,348,7,-1056,-42918,39681,39086
1721673235.078157,446,-43,-1134,-36653,34527,35621
1721673235.087628,411,-101,-1174,-31675,26880,36837
1721673235.097099,303,-116,-1168,-28542,16966,36898
1721673235.106570,203,-96,-1130,-26923,6711,34973
1721673235.116041,137,-49,-1088,-25305,-552,32322
1721673235.125519,105,-31,-1054,-22041,-3789,29732,-3289,33422,-7965,84527,33954, 153254.100, 40.0106563,-105.2442893, 1620.304,1641.631, 5.602,4.643
1721673235.134990,107,-55,-1102,-17648,-3675,26696
1721673235.144461,121,-27,-1145,-12696,-1400,24701
1721673235.153932,123,-4,-1123,-7542,1172,25278
1721673235.163403,114,-9,-1072,-1828,1776,22706
1721673235.172874,127,3,-1027,5137,1268,18803
1721673235.182345,166,1,-1000,13073,1295,18077
1721673235.191816,188,-46,-1000,20607,1627,18558
1721673235.201294,191,-102,-1002,27029,997,16213,-2349,35162,-6909,,, 153254.200, 40.0106548,-105.2442883, 1619.919,1641.247, 5.572,4.583
1721673235.210765,201,-153,-996,31430,-1112,12346
1721673235.220236,212,-204,-1004,32892,-4122,9651
1721673235.229707,179,-226,-1020,31474,-7928,8793
1721673235.239178,144,-225,-1030,28149,-12408,8461
1721673235.248649,131,-196,-1041,23468,-16809,6860
1721673235.258120,123,-154,-1051,18760,-19837,4602
1721673235.267591,98,-105,-1046,15068,-21062,2318
1721673235.277069,81,-57,-1017,12417,-20510,271,,,,84535,33963, 153254.300, 40.0106533,-105.2442877, 1619.639,1640.967, 5.540,4.523
1721673235.286540,84,-20,-981,10850,-17999,-762
1721673235.296011,85,-19,-964,11017,-13414,-167
1721673235.305482,102,-47,-982,12172,-7980,315
1721673235.314953,110,-71,-1005,13213,-2643,822
1721673235.324424,117,-105,-1009,13213,1916,1557
1721673235.333895,139,-112,-1039,11717,4847,393
1721673235.343366,160,-97,-1007,9205,6842,-1330
1721673235.352844,186,-79,-942,5530,8583,-1663,-1690,36169,-6225,84530,33968, 153254.400, 40.0106521,-105.2442867, 1619.341,1640.669, 5.508,4.470
1721673235.362315,178,-77,-918,2328,9476,-875
1721673235.371786,171,-74,-930,499,8986,-1803
1721673235.381257,156,-60,-926,-1400,7805,-2065
1721673235.390728,143,-27,-917,-4471,6991,428
1721673235.400199,182,0,-906,-6912,6737,5145
1721673235.409670,205,9,-928,-8207,7175,9966
1721673235.419141,207,17,-937,-8268,7236,12101
1721673235.428681,228,16,-934,-8015,6343,11847,-1788,35955,-6182,84532,33972
1721673235.438152,230,-5,-970,-7778,4733,11051
1721673235.447623,244,-12,-1008,-7525,2038,11051
1721673235.457094,233,3,-1033,-8137,-1602,10998
1721673235.466565,205,27,-1017,-9012,-5294,11558
1721673235.476036,185,52,-991,-9371,-8295,12521
1721673235.485507,172,64,-982,-8330,-10465,12845
1721673235.494978,163,48,-985,-6273,-12128,12363
1721673235.504486,147,33,-991,-4007,-13353,11287,-909,36120,-6573,,, 153254.500, 40.0106533,-105.2442864, 1619.373,1640.701, 5.475,4.431
1721673235.513957,125,14,-983,-2143,-13983,10587
1721673235.523428,128,-10,-986,-997,-14394,8531
1721673235.532899,144,-10,-994,-630,-14447,5757
1721673235.542370,174,-9,-991,-761,-13922,4165
1721673235.551841,203,9,-997,-1618,-13213,3473
1721673235.561312,216,39,-983,-2458,-12644,4095
1721673235.570783,227,46,-944,-2843,-12084,5853
1721673235.580261,246,0,-937,-2415,-11437,8662,6,36511,-6939,84533,33974, 153254.600, 40.0106536,-105.2442856, 1619.385,1640.713, 5.442,4.395
1721673235.589733,239,-63,-986,-1198,-11262,11917
1721673235.599205,204,-62,-988,595,-11857,16266
1721673235.608677,181,-74,-946,1488,-13248,20702
1721673235.618149,165,-90,-910,928,-15365,21700
1721673235.627621,173,-101,-907,552,-18445,20685
1721673235.637093,178,-70,-923,665,-22540,19363
1721673235.646565,180,-37,-915,683,-26434,18961
1721673235.656037,182,5,-885,44,-30214,16940,,,,84530,33981
1721673235.665512,201,25,-876,-367,-33942,14568
1721673235.674987,235,25,-913,210,-36742,13536
1721673235.684462,238,44,-936,1812,-38518,15190
1721673235.693937,227,43,-940,3282,-39515,18970
1721673235.703412,226,45,-933,3894,-40163,23135
1721673235.712887,219,19,-968,4559,-40215,27912
1721673235.722362,190,8,-1007,5434,-40644,30467
1721673235.731903,165,10,-1003,5994,-41169,32086,1715,37030,-7934,84534,33981, 153254.700, 40.0106545,-105.2442837, 1619.270,1640.598, 5.390,4.351
1721673235.741375,154,4,-997,5250,-41458,33005
1721673235.750847,132,-10,-1014,3842,-41309,33258
1721673235.760319,114,0,-1035,2590,-41064,33293
1721673235.769791,100,61,-1018,1698,-40320,33635
1721673235.779263,96,94,-985,849,-38448,34396
1721673235.788735,101,114,-981,412,-35578,33573
1721673235.798207,114,114,-989,1497,-32165,32917
1721673235.807587,139,142,-978,3352,-28307,32585,2697,37231,-8587,,, 153254.800, 40.0106528,-105.2442815, 1619.108,1640.436, 5.316,4.289
1721673235.817058,158,153,-954,5565,-23765,35280
1721673235.826529,160,121,-950,7849,-19303,38473
1721673235.836000,157,90,-947,9975,-15628,40705
1721673235.845471,148,45,-923,11060,-12662,42787
1721673235.854942,149,1,-908,9932,-10649,44310
1721673235.864413,141,-25,-923,7359,-10010,45535
1721673235.873884,127,-22,-928,4052,-10422,46182
1721673235.883362,119,-24,-913,-376,-11489,46208,1727,36560,-8984,84534,33993, 153254.900, 40.0106515,-105.2442782, 1618.975,1640.303, 5.243,4.221
1721673235.892833,123,-35,-940,-5591,-12609,45062
1721673235.902304,134,-2,-989,-10316,-13152,44012
1721673235.911775,146,38,-986,-14096,-12819,45281
1721673235.921246,152,65,-958,-17115,-11997,46515
1721673235.930717,160,76,-955,-18681,-11209,46725
1721673235.940188,159,74,-974,-18838,-10754,46042
1721673235.949659,172,78,-989,-18436,-10772,44642
1721673235.959137,184,94,-977,-17701,-10500,44633,573,34735,-9875,84539,33995, 153255.000, 40.0106508,-105.2442756, 1618.927,1640.255, 5.187,4.164
1721673235.968608,193,92,-949,-16773,-9660,45797
1721673235.978079,200,72,-938,-15828,-8785,46480
1721673235.987550,210,19,-954,-14708,-8164,46488
1721673235.997021,227,-18,-989,-13895,-7604,46261
1721673236.006492,238,-31,-1003,-13807,-7202,47670
1721673236.015963,230,-33,-1020,-14682,-7035,49367
1721673236.025434,218,-15,-1030,-16205,-7184,49542
1721673236.034943,209,0,-1025,-17333,-7788,48002,,,,84535,34006
1721673236.044414,207,11,-1029,-17788,-8540,45290
1721673236.053885,194,33,-1047,-17351,-8742,43155
1721673236.063356,179,65,-1043,-16003,-8033,41965
1721673236.072827,169,87,-998,-13947,-6440,40853
1721673236.082298,171,82,-954,-11217,-3824,39375
1721673236.091769,203,46,-966,-7472,-1077,37502
1721673236.101240,224,29,-1004,-3351,1470,36373
1721673236.110718,241,5,-992,-43,4287,37065,-524,32983,-10443,,, 153255.100, 40.0106481,-105.2442736, 1618.717,1640.045, 5.152,4.122
1721673236.120189,245,-8,-952,1444,6667,37222
1721673236.129660,251,-25,-927,1995,8330,36776
1721673236.139131,257,-65,-942,1890,9380,35463
1721673236.148602,260,-83,-977,1042,10141,33276
1721673236.158073,264,-54,-968,-490,11226,32690
