;Title, http://www.gcdataconcepts.com, LSM6DSM, BMP384, GPS
;Version, 2585, Build date, Feb  9 2024,  SN:CCDC20233AE65C7
;Start_time, 2024-07-22, 19:14:20.421
;Uptime, 5,sec,  Vbat, 3930, mv, EOL, 3500, mv
;Deadband, 0, counts
;DeadbandTimeout, 0.000,sec
;BMP384, SI, 0.100,sec, Units, Pa, mdegC
;Alt Trigger disabled
;LSM6DSM, SR,104,Hz, Units, mG, mdps, fullscale gyro 250dps, accel 4g
;Magnetometer, SR,10,Hz, Units, nT, Temperature, 32,degC
;CAM_M8 Gps, SR,10,Hz
;Gps Sats, TOW, 155674472, ver, 1, numSat, 23
;, gnssId, svId, cno, elev, azmith, prRes, flags,inUse
;, GPS, 005, 00, 02, 069, 0, 0x00001910
;, GPS, 008, 00, 01, 328, 0, 0x00001210
;, GPS, 010, 00, 36, 265, 0, 0x00001910
;, GPS, 013, 00, 17, 040, 0, 0x00001910
;, GPS, 015, 00, 45, 056, 0, 0x00001910
;, GPS, 016, 00, 09, 276, 0, 0x00001910
;, GPS, 018, 00, 72, 078, 0, 0x00001910
;, GPS, 023, 00, 67, 301, 0, 0x00001910
;Time, Ax, Ay, Az, Gx, Gy, Gz, Mx, My, Mz, P, T, TOW, Lat,Lon, Height(m), MSL(m), hdop(m), vdop(m)
1721675660.483549,14,-16,1014,-2983,866,253,15722,-2502,55175,84524,36512, 155676.499, 40.0100804,-105.2442156, 1564.673,1586.001, 177.091,171.730
1721675660.492814,-13,-13,1014,175,-928,-7875
1721675660.502079,-52,3,1019,1129,-1313,-9722
1721675660.511344,-15,-3,995,2074,-1497,-10702
1721675660.520609,3,4,1021,2835,-622,-10772
1721675660.529874,19,-47,1009,3220,-315,-10439
1721675660.539139,15,-47,1010,3719,245,-10483
1721675660.548404,51,-42,1017,3404,481,-8357
1721675660.937988,50,-81,1029,3220,-35,-6475,,,,84522,36514
1721675660.947253,13,-92,1046,3395,-1505,-4830
1721675660.956518,-49,-81,1037,3535,-3527,-1733
1721675660.965783,-67,-50,1044,3387,-4332,332
1721675660.975048,-29,-75,1038,2739,-3955,1802
1721675660.984313,9,-89,1031,2328,-2582,4550
1721675660.993578,46,-26,1018,1225,-919,5783
1721675661.002843,49,-32,998,-227,673,5407
1721675661.012146,42,-32,982,-805,1688,1478,15716,-2697,54986,84523,36518
1721675661.021411,41,-22,994,-1163,1942,-1374
1721675661.030676,26,-48,990,-1207,1592,-2634
1721675661.039941,5,-43,986,-822,743,-4052
1721675661.049206,38,-43,986,-455,-193,-5662
1721675661.058471,52,-35,987,-341,-954,-8357
1721675661.067736,56,-30,980,-192,-1619,-9870
1721675661.077001,64,-57,990,333,-2153,-9030
1721675661.086273,80,-57,1000,613,-2337,-8322,15356,-2783,55035,84515,36518, 155680.100, 40.0103255,-105.2440084, 1597.406,1618.734, 10231.780,7234.962
1721675661.095538,81,-61,1015,-201,-2118,-6432
1721675661.104803,63,-59,1030,-971,-2590,-4139
1721675661.114068,39,-56,1041,-1513,-3710,-2240
1721675661.123333,-16,-75,1067,-2380,-5837,1041
1721675661.132598,3,-84,1029,-2432,-8024,5678
1721675661.141863,-35,-121,1053,-2817,-8864,4970
1721675661.151128,-49,-29,1035,-3596,-9328,-2074
1721675661.160400,13,-35,1066,-4121,-9407,-6222,14575,-2593,55236,,, 155680.100, 40.0103255,-105.2440084, 1597.406,1618.734, 10231.780,7234.962
1721675661.169669,47,-14,1087,-4042,-8917,-10133
1721675661.178938,47,-6,1096,-3675,-9249,-10623
1721675661.188207,4,-28,1101,-3141,-9809,-12268
1721675661.197476,-35,-64,1118,-2572,-10115,-16459
1721675661.206745,-58,-76,1122,-2423,-9993,-16669
1721675661.216014,-54,-102,1112,-2546,-9765,-18095
1721675661.225283,-78,-66,1113,-2406,-9625,-22987
1721675661.234558,-130,-50,1098,-2485,-9555,-24877,12878,-2465,55316,84520,36525, 155680.200, 40.0103255,-105.2440084, 1597.406,1618.734, 10231.786,7234.966
1721675661.243823,-138,-44,1089,-2423,-9100,-27624
1721675661.253088,-157,-45,1093,-2240,-7832,-28167
1721675661.262353,-111,-45,1099,-2065,-5242,-28368
1721675661.271618,6,-28,1096,-1890,-1969,-27895
1721675661.280883,83,-22,1071,-1907,761,-26679
1721675661.290148,32,-97,1063,-1785,1977,-24579
1721675661.299413,35,-6,1040,-1618,1837,-17168
1721675661.308685,-1,6,1019,-1662,883,1557,,,,84520,36525, 155680.300, 40.0103255,-105.2440084, 1597.406,1618.734, 10231.792,7234.969
1721675661.317950,-19,-31,972,-420,192,1382
1721675661.327215,-9,-30,934,1313,-79,-6125
1721675661.336480,44,-30,905,2310,192,-4979
1721675661.345745,33,-53,886,2949,455,-4122
1721675661.355010,38,-46,912,3588,673,-7158
1721675661.364275,25,-63,934,3684,376,-7140
1721675661.373540,-3,-48,945,3710,-727,-3544
1721675661.382813,-36,-41,958,3710,-1847,1085,12756,-2685,55047,84520,36527
1721675661.392079,-74,-47,972,3789,-2678,5363
1721675661.401345,-98,-58,968,3824,-2923,8015
1721675661.410611,-101,-82,971,3614,-2398,8400
1721675661.419877,-48,-126,994,2993,-1252,7210
1721675661.429143,-22,-149,1007,1505,131,4611
1721675661.438409,6,-106,1011,-691,988,367
1721675661.447675,0,-44,1012,-3526,1968,-4988
1721675661.457001,0,-48,1013,-5258,2642,-7018,12738,-2783,55029,,, 155680.400, 40.0103255,-105.2440084, 1597.406,1618.734, 10231.800,7234.974
1721675661.466267,7,-28,1025,-5906,3106,-6467
1721675661.475533,-11,-8,1035,-5923,3001,-4620
1721675661.484799,-4,-20,1027,-5118,2450,-1182
1721675661.494065,-6,-40,1028,-4016,2187,3972
1721675661.503331,4,-41,1030,-3263,2021,7735
1721675661.512597,22,-14,1037,-3307,2406,8592
1721675661.521863,34,2,1038,-4025,2887,6606
1721675661.531128,52,1,1038,-4278,3141,3806,13006,-2783,55151,84519,36529, 155680.500, 40.0103255,-105.2440084, 1597.406,1618.734, 10231.808,7234.980
1721675661.540393,55,-33,1048,-3543,3115,2703
1721675661.549658,25,-45,1057,-2266,2406,2896
1721675661.558923,0,-22,1048,-1461,1146,3123
1721675661.568188,-11,-20,1032,-525,-307,3736
1721675661.577453,-11,-35,1021,840,-1182,3368
1721675661.586718,-10,-76,1015,1838,-1995,3438
1721675661.595983,5,-78,1023,2337,-2328,3438
1721675661.605255,22,-97,1035,2188,-2669,6282,12847,-2581,55004,84514,36534, 155680.600, 40.0115914,-105.2440334, 1597.406,1618.734, 1613.027,707.107
1721675661.614521,-4,-81,1031,1943,-3028,5556
1721675661.623787,-40,-96,1023,1304,-3430,2598
1721675661.633053,-3,-61,1010,473,-2862,-219
1721675661.642319,0,-61,1005,-402,-1873,-1733
1721675661.651585,8,-45,1020,-962,-1812,-2643
1721675661.660851,-2,-44,1014,-1303,-2468,-3413
1721675661.670117,-34,-80,1011,-612,-3422,-2389
1721675661.679413,-43,-75,1011,62,-4437,-1138,,,,84526,36543
1721675661.688678,-24,-90,1024,-166,-4839,1128
1721675661.697943,-6,-101,1018,-323,-4725,4042
1721675661.707208,8,-81,1020,-1207,-4095,6335
1721675661.716473,36,-66,1011,-2607,-3299,7446
1721675661.725738,48,-40,1003,-3745,-2337,6667
1721675661.735003,38,-20,1015,-4436,-1943,5285
1721675661.744268,12,-38,1016,-4558,-2450,3211
1721675661.753540,3,-30,1010,-4138,-3509,883,12792,-2642,55072,,, 155680.700, 40.0117848,-105.2440460, 1602.990,1624.318, 1464.052,468.550
1721675661.762805,2,-20,1010,-3815,-4533,-735
1721675661.772070,-6,-23,1006,-3482,-5119,-1339
1721675661.781335,-15,-34,991,-2922,-5452,-718
1721675661.790600,-10,-61,975,-2205,-5268,1706
1721675661.799865,16,-27,983,-1741,-4577,4550
1721675661.809130,-3,-68,999,-1671,-3737,7577
1721675661.818395,-48,-53,1017,-1225,-3045,8137
1721675661.827667,-31,-39,1022,-1172,-2512,10360,12799,-2471,55169,84515,36532, 155680.800, 40.0117205,-105.2440233, 1602.265,1623.593, 1369.024,439.533
1721675661.836932,2,-47,1024,-1435,-1575,9660
1721675661.846197,-12,-34,1026,-2222,-1042,6860
1721675661.855462,-23,-44,1017,-3325,-1278,4663
1721675661.864727,-16,-76,993,-3727,-1689,3325
1721675661.873992,-17,-44,974,-3788,-1812,3281
1721675661.883257,-21,-20,969,-4130,-1855,5687
1721675661.892522,-24,5,993,-4462,-1497,5626
1721675661.901825,-36,8,1030,-4191,-945,3508,12908,-2331,55352,84522,36545, 155680.900, 40.0117064,-105.2440482, 1601.532,1622.860, 1243.476,399.760
1721675661.911090,-39,11,1047,-3526,-552,1181
1721675661.920355,-27,-10,1044,-3001,-44,-62
1721675661.929620,-29,-40,1046,-2222,210,-429
1721675661.938885,-27,-42,1057,-1881,490,113
1721675661.948150,-65,-58,1067,-1995,682,936
1721675661.957415,4,-46,1048,-2187,857,717
1721675661.966680,-16,-14,1029,-2143,1461,918
1721675661.975952,-8,4,1036,-1548,1461,4191,13354,-2593,55139
1721675661.985217,-17,12,1056,-402,1968,5031
1721675661.994482,-44,1,1068,1304,2213,4987
1721675662.003747,-65,9,1076,2923,2362,4655
1721675662.013012,-50,-4,1090,4822,3010,4900
1721675662.022277,-48,-42,1094,4874,4235,5460
1721675662.031542,-30,-61,1092,5014,5643,6282
1721675662.040807,9,-85,1091,5110,6553,7227
1721675662.050079,-113,-58,1098,5040,6833,7980,,,,84524,36554, 155681.000, 40.0116632,-105.2440495, 1600.179,1621.507, 1182.976,380.579
1721675662.059344,-114,3,1100,4717,6518,7708
1721675662.068609,-66,-44,1098,5075,6536,7183
1721675662.077874,-20,-62,1092,6117,6107,4418
1721675662.087139,12,-61,1069,6712,5162,3753
1721675662.096404,18,-78,1050,6843,4541,3333
1721675662.105669,18,-68,1036,6790,3753,2756
1721675662.114934,30,-40,1028,6335,3290,3377
1721675662.124298,31,-18,1010,5618,3018,2922,13836,-3088,54772,84524,36554
1721675662.133563,61,1,992,5504,2555,1443
1721675662.142828,39,-12,986,6055,1732,-403
1721675662.152093,4,-26,982,6930,437,-3483
1721675662.161358,2,-36,977,7604,-902,-5548
1721675662.170623,48,-46,967,8225,-2109,-7805
1721675662.179888,33,-108,971,8549,-3247,-8969
1721675662.189153,-29,-107,970,8374,-4157,-7123
1721675662.198425,-15,-104,991,7630,-4122,-3597,13427,-3497,54351,84524,36554, 155681.200, 40.0104856,-105.2443586, 1637.225,1658.552, 53.241,31.404
1721675662.207690,1,-100,1002,6475,-2783,-2197
1721675662.216955,-14,-75,1006,5417,-1374,-2809
1721675662.226220,-15,-47,1009,4472,-648,-4769
1721675662.235485,-31,-49,985,4174,-630,-5740
1721675662.244750,-29,-110,983,4550,-945,-7797
1721675662.254015,-5,-178,998,4734,-1077,-8295
1721675662.263280,22,-161,997,4157,-674,-4804
1721675662.272553,21,-101,981,2582,-508,157,13403,-3540,54248,,, 155681.200, 40.0104856,-105.2443586, 1637.225,1658.552, 53.241,31.404
1721675662.281819,14,-142,989,753,-158,3753
1721675662.291085,15,-92,998,-140,271,4558
1721675662.300351,38,-105,1029,-883,1093,7192
1721675662.309617,-29,-110,1031,-1303,1890,3237
1721675662.318883,-55,-86,1052,-1995,2082,-744
1721675662.328149,-36,-89,1054,-3430,2178,-3124
1721675662.337415,-43,-76,1037,-4121,2397,-4340
1721675662.346710,-10,-88,1021,-4278,2572,-3168,,,,84519,36549, 155681.300, 40.0104467,-105.2443375, 1635.295,1656.623, 50.439,30.481
1721675662.355976,30,-91,1011,-4366,3377,-1987
1721675662.365242,44,-98,997,-4296,4208,-1278
1721675662.374508,48,-86,988,-4243,4742,-499
1721675662.383774,35,-58,988,-4138,4926,1032
1721675662.393040,25,-53,1007,-3963,4523,2213
1721675662.402306,9,-54,1015,-3412,3692,1583
1721675662.411572,9,-51,1006,-2896,2266,1470
1721675662.420838,14,-45,995,-2345,647,813,13580,-3448,54315,84516,36554, 155681.400, 40.0104586,-105.2443214, 1633.698,1655.026, 43.152,26.233
1721675662.430104,19,-41,997,-2135,-832,-158
1721675662.439370,25,-54,997,-1977,-1908,-945
1721675662.448636,30,-72,993,-1793,-2442,-1750
1721675662.457902,36,-47,1003,-1408,-2844,-2048
1721675662.467168,-6,-33,1022,-1032,-3325,-814
1721675662.476434,-19,-35,1028,-341,-4113,122
1721675662.485700,0,-45,1029,368,-4428,-403
1721675662.494965,-5,-58,1026,797,-4717,-1094,13330,-3540,54217,84520,36556
1721675662.504231,1,-85,1018,788,-4717,-1917
1721675662.513497,-4,-94,1014,482,-4935,-2468
1721675662.522763,-14,-105,1021,62,-5417,-1742
1721675662.532029,-36,-111,1032,-402,-5574,-648
1721675662.541295,-20,-89,1038,-1067,-5390,411
1721675662.550561,-1,-89,1041,-1793,-4655,1408
1721675662.559827,15,-80,1032,-2187,-3772,1723
1721675662.569122,-10,-41,1043,-2248,-3194,2765,13134,-3411,54370,,, 155681.500, 40.0104529,-105.2443191, 1632.279,1653.607, 36.960,23.263
1721675662.578388,-40,-15,1064,-2275,-3010,3727
1721675662.587654,-39,-26,1067,-1855,-3142,2502
1721675662.596920,-21,-53,1058,-1163,-2914,988
1721675662.606186,-19,-66,1051,-525,-2678,323
1721675662.615452,-11,-74,1043,-490,-2275,17
1721675662.624718,-3,-81,1036,-875,-1820,-945
1721675662.633984,-4,-95,1038,-1006,-1523,-1777
1721675662.643250,-4,-98,1044,-848,-1278,-2144,12854,-3509,54357,84517,36561, 155681.600, 40.0104551,-105.2443052, 1629.823,1651.151, 32.613,21.153
1721675662.652516,-3,-91,1042,-700,-1085,-2459
1721675662.661782,-11,-70,1041,-752,-1138,-2678
1721675662.671048,-15,-42,1045,-971,-1575,-3439
1721675662.680314,-29,-37,1046,-1216,-1803,-4262
1721675662.689580,-55,-64,1066,-822,-1794,-4857
1721675662.698846,-65,-95,1084,-166,-1427,-4472
1721675662.708112,-51,-98,1082,280,-657,-3343
1721675662.717377,-35,-86,1084,-52,288,-989,,,,84521,36563, 155681.700, 40.0104422,-105.2442794, 1627.073,1648.401, 29.283,19.463
1721675662.726643,-66,-96,1090,-831,1058,1242
1721675662.735909,-35,-84,1084,-1251,1548,1741
1721675662.745175,-31,-73,1077,-1662,2511,2581
1721675662.754441,-36,-37,1077,-2100,2913,3613
1721675662.763707,-26,-31,1071,-1636,2747,3386
1721675662.772973,-4,-35,1051,-525,2870,3088
1721675662.782239,10,-12,1031,945,3001,2931
1721675662.791565,26,-38,1004,2232,2695,2966,13104,-3503,54266,84519,36563
1721675662.800831,29,-42,978,3553,2301,2616
1721675662.810097,47,-59,963,4515,2231,2677
1721675662.819363,62,-68,953,5075,2030,2450
1721675662.828629,48,-76,944,5224,2021,2633
1721675662.837895,37,-72,937,5058,1828,2905
1721675662.847161,30,-69,938,4944,1505,2371
1721675662.856427,21,-80,945,5067,752,1776
1721675662.865692,-3,-92,952,5303,192,1750,13293,-3753,53997,,, 155681.800, 40.0104308,-105.2442605, 1625.055,1646.383, 26.553,18.080
1721675662.874957,-8,-121,966,5627,-245,1828
1721675662.884222,1,-124,963,5600,-359,1732
1721675662.893487,-24,-107,967,4629,-342,2240
1721675662.902752,-22,-101,971,3159,-385,2668
1721675662.912017,-17,-105,978,2039,-508,2345
1721675662.921282,-19,-99,990,1435,-788,2660
1721675662.930547,-25,-101,1006,1225,-1007,3377
1721675662.939819,-34,-105,1024,814,-1190,3263,13342,-3717,53997,84518,36565, 155681.900, 40.0104142,-105.2442481, 1622.207,1643.535, 24.150,16.716
1721675662.949084,-102,-172,1056,27,-1339,2423
1721675662.958349,-24,-137,1076,-936,-928,1435
1721675662.967614,-25,-151,1069,-2633,183,-350
1721675662.976879,-40,-136,1056,-3920,927,1540
1721675662.986144,5,-104,1052,-5162,1951,2712
1721675662.995409,8,-127,1042,-6160,2852,3185
1721675663.004674,2,-105,1036,-6641,3001,3473
1721675663.013977,-3,-68,1032,-7595,2616,3342,13482,-3491,54199,84513,36563, 155682.000, 40.0104081,-105.2442388, 1621.330,1642.658, 22.084,15.555
1721675663.023242,38,0,1011,-8408,2205,3587
1721675663.032507,81,27,974,-8233,1373,3972
1721675663.041772,128,-5,930,-6702,612,1513
1721675663.051037,119,-14,912,-4515,-648,-499
1721675663.060302,100,-19,905,-2800,-2249,481
1721675663.069567,54,-59,925,-1303,-3658,3788
1721675663.078832,36,-108,940,-52,-4717,4698
1721675663.088104,15,-114,954,657,-5373,5643,,,,84521,36572
1721675663.097369,-35,-94,983,272,-6292,6457
1721675663.106634,-67,-95,1000,-210,-7079,6763
1721675663.115899,-93,-100,1016,-586,-7280,5285
1721675663.125164,-84,-113,1027,-1120,-7070,2310
1721675663.134429,-78,-100,1039,-2196,-5688,1225
1721675663.143694,-44,-104,1059,-2835,-4157,1076
1721675663.152959,-31,-113,1073,-3333,-2345,-237
1721675663.162232,-22,-115,1068,-3788,-893,78,13427,-3411,54254,,, 155682.100, 40.0104049,-105.2442305, 1620.330,1641.658, 20.396,14.618
1721675663.171498,-22,-116,1071,-4051,-123,1041
1721675663.180764,-10,-126,1079,-4646,-62,1583
1721675663.190030,-52,-146,1123,-5363,-97,1732
1721675663.199296,-75,-131,1123,-6536,-525,700
1721675663.208562,-40,-71,1110,-8522,-735,-3404
1721675663.217828,-25,-24,1097,-10237,-674,-4235
1721675663.227094,-33,-15,1089,-10360,-674,-3640
1721675663.236389,-38,-53,1104,-9756,-648,-2660,13354,-3112,54620,84519,36574, 155682.200, 40.0104130,-105.2442240, 1620.347,1641.675, 18.859,13.774
1721675663.245655,-52,-90,1124,-9003,-62,-2004
1721675663.254921,-17,-91,1110,-8260,700,-1374
1721675663.264187,58,-84,1069,-7892,1618,-132
1721675663.273453,118,-71,1037,-7542,1592,2572
1721675663.282719,99,-38,1010,-6685,420,4803
1721675663.291985,53,26,984,-6326,-1908,8050
1721675663.301251,46,56,971,-5862,-4314,8198
1721675663.310516,41,61,966,-4838,-6187,5530,13208,-2990,54718,84517,36572, 155682.300, 40.0104130,-105.2442171, 1620.087,1641.415, 17.664,13.069
1721675663.319782,26,38,966,-3211,-7604,2240
1721675663.329048,15,-18,986,-1452,-8698,-403
1721675663.338314,34,-75,1002,534,-9214,-1199
1721675663.347580,0,-103,1009,1882,-9074,-1689
1721675663.356846,-35,-102,1013,1995,-8768,-3824
1721675663.366112,-49,-104,1018,1322,-8348,-4760
1721675663.375378,-59,-88,1018,482,-7578,-5259
1721675663.384644,-86,-92,1021,-848,-6764,-5644,12762,-2825,54895,84518,36576
1721675663.393910,-91,-62,1027,-2161,-6475,-5653
1721675663.403176,-76,-60,1030,-3526,-6353,-3693
1721675663.412442,-67,-57,1046,-4322,-6055,-9
1721675663.421708,-29,-66,1057,-4681,-5714,2896
1721675663.430974,-16,-88,1073,-4725,-5819,5355
1721675663.440240,-10,-76,1073,-4725,-6195,7008
1721675663.449506,-20,-58,1074,-4646,-6484,6641
1721675663.458862,-29,-16,1067,-4620,-6904,6177,,,,,, 155682.400, 40.0104194,-105.2442112, 1619.530,1640.858, 16.564,12.422
1721675663.468128,-50,23,1065,-4523,-7184,8225
1721675663.477394,-58,57,1068,-3543,-6983,9441
1721675663.486660,-58,19,1041,-2275,-6887,6168
1721675663.495926,-46,-7,1018,-612,-6992,2047
1721675663.505192,-13,-7,996,902,-6817,1802
1721675663.514458,-12,-4,980,2057,-6633,2975
1721675663.523724,-4,-13,974,2923,-6650,1785
1721675663.532990,0,-39,973,3719,-6563,43,12530,-2850,54754,84513,36574, 155682.500, 40.0104227,-105.2442074, 1619.359,1640.687, 15.342,11.521
1721675663.542256,-27,-53,984,4559,-6152,-893
1721675663.551522,-43,-61,991,5145,-5714,-438
1721675663.560788,-46,-73,996,5390,-5198,52
1721675663.570054,-68,-84,1000,5522,-4480,971
1721675663.579320,-88,-81,993,5574,-4025,3158
1721675663.588586,-82,-73,985,5338,-3203,4978
1721675663.597852,-78,-48,989,4830,-1847,5311
1721675663.607117,-71,-51,993,3982,-385,5267,12561,-3234,54486,84522,36587
1721675663.616383,-62,-52,1002,3588,542,4287
1721675663.625649,-71,-50,1012,3413,1032,4252
1721675663.634915,-102,-43,1026,3457,1303,4847
1721675663.644181,-299,45,1035,3553,1540,4803
1721675663.653447,-88,-7,1022,4052,3517,8548
1721675663.662713,-162,-188,1021,5583,7061,7367
1721675663.671979,177,-61,991,5452,7813,2870
1721675663.681275,112,-100,999,4480,8697,1986,13092,-3381,54272,84517,36569, 155682.600, 40.0104243,-105.2442043, 1619.311,1640.639, 14.375,10.898
1721675663.690544,118,-95,1016,3885,5276,8715
1721675663.699813,49,-101,1021,3439,2782,10342
1721675663.709082,28,-159,991,3002,288,8426
1721675663.718351,31,-172,982,2433,-1068,6851
1721675663.727620,-2,-145,970,1155,-2100,6221
1721675663.736889,-25,-110,960,-280,-2897,7070
1721675663.746158,-46,-68,971,-1312,-2914,7568
1721675663.755432,-70,-45,998,-1706,-2809,7936,13092,-3381,54333,,, 155682.700, 40.0104253,-105.2441992, 1618.994,1640.322, 13.456,10.353
1721675663.764698,-88,-53,1011,-1496,-3124,6816
1721675663.773964,-77,-75,1038,-717,-3509,3963
1721675663.783230,-88,-81,1056,193,-3395,1233
1721675663.792496,-96,-53,1062,639,-3290,-657
1721675663.801762,-123,-59,1074,403,-3185,-1995
1721675663.811028,-126,-96,1079,158,-2442,-3667
1721675663.820294,-38,-123,1051,-70,-692,-3693
1721675663.829559,43,-141,1037,-875,918,-1952,,,,84525,36592, 155682.800, 40.0104205,-105.2441946, 1618.512,1639.841, 12.675,9.884
1721675663.838825,86,-138,1022,-2003,726,-875
1721675663.848091,20,-114,1013,-3115,-1042,-455
1721675663.857357,-45,-102,995,-4033,-3474,-840
1721675663.866623,-51,-84,993,-4366,-4760,-2127
1721675663.875889,-43,-94,996,-4873,-4944,-2844
1721675663.885155,-40,-81,997,-5250,-4690,-2442
1721675663.894421,-70,-54,1005,-5442,-4244,-867
1721675663.903687,-80,-31,1011,-5433,-3675,297,12841,-3253,54364,84518,36587, 155682.900, 40.0104130,-105.2441892, 1618.042,1639.370, 11.965,9.458
1721675663.912953,-116,-18,1034,-5162,-2695,770
1721675663.922219,-66,-32,1037,-4760,-1584,1426
1721675663.931485,-27,-66,1048,-4060,-263,2257
1721675663.940751,-36,-98,1053,-3552,122,2406
1721675663.950017,-69,-122,1044,-3421,-569,1645
1721675663.959283,-43,-126,1033,-3552,-1304,892
1721675663.968549,-69,-108,1035,-4156,-1339,595
1721675663.977814,-75,-116,1026,-5101,-1068,603,13006,-2996,54730
1721675663.987080,-63,-133,1011,-6072,-44,428
1721675663.996346,-47,-80,1035,-6921,1513,1688
1721675664.005612,-73,-19,1061,-7770,3045,7236
1721675664.014878,-88,-29,1056,-7953,4130,5871
1721675664.024144,-88,-18,1055,-7507,4795,1400
1721675664.033410,-53,-31,1058,-7087,5372,1032
1721675664.042676,-46,-40,1056,-6160,5836,1470
1721675664.051972,-30,0,1042,-5591,5906,1382,13391,-2648,54943,84521,36592, 155683.000, 40.0104088,-105.2441880, 1618.222,1639.550, 11.353,9.072
1721675664.061238,0,-41,1014,-5153,6177,2135
1721675664.070504,-13,-55,1002,-4462,6693,1855
1721675664.079770,-21,-4,989,-4567,7280,3342
1721675664.089036,-32,11,986,-4488,7568,3631
1721675664.098302,-40,-5,985,-3675,7700,1032
1721675664.107568,-44,7,1008,-2537,7936,-394
1721675664.116834,-56,8,1019,-1373,7568,-1077
1721675664.126129,-62,-25,1012,-437,6151,-2599,13629,-2893,54809,84513,36592, 155683.100, 40.0104092,-105.2441870, 1618.304,1639.632, 10.934,8.818
1721675664.135395,-44,-27,992,788,4567,-4052
1721675664.144661,-18,-23,982,1584,3657,-2520
1721675664.153927,-25,-43,981,2092,3255,-674
1721675664.163193,-31,-51,988,2862,2948,1513
1721675664.172459,-46,-59,1002,3422,2581,2852
1721675664.181725,-48,-38,1006,3465,1942,3281
1721675664.190991,-54,-36,1013,3343,1330,3062
1721675664.200256,-51,-25,1013,3500,883,3193,,,,84517,36594
1721675664.209525,-53,-40,1020,3833,420,3876
1721675664.218794,-43,-54,1028,4524,288,4182
1721675664.228063,-46,-64,1039,5373,253,4471
1721675664.237332,-53,-74,1045,6108,210,3902
1721675664.246601,-63,-70,1056,6274,393,2406
1721675664.255870,-67,-81,1065,6125,866,717
1721675664.265139,-67,-111,1067,5662,1522,-1243
1721675664.274414,-70,-103,1068,4708,2432,-2765,13812,-3057,54541,,, 155683.200, 40.0104100,-105.2441874, 1618.677,1640.005, 10.466,8.501
1721675664.283683,-74,-65,1086,2800,3806,-3640
1721675664.292952,-74,-70,1108,823,5092,-4865
1721675664.302221,-70,-81,1121,-595,6448,-6213
1721675664.311490,-56,-60,1121,-1531,7778,-7875
1721675664.320759,-30,-40,1124,-2476,9056,-12390
1721675664.330028,-76,-51,1111,-3246,9581,-17229
1721675664.339297,-85,-45,1085,-3412,9633,-15934
1721675664.348541,-46,-55,1070,-3115,10027,-14228,13787,-2893,54742,84516,36598, 155683.300, 40.0104105,-105.2441864, 1618.862,1640.190, 9.996,8.192
1721675664.357807,-9,-64,1055,-2800,10622,-12522
1721675664.367073,16,-78,1043,-2222,11103,-9564
1721675664.376339,57,-57,1017,-1636,11436,-5950
1721675664.385605,4,-26,1001,-1015,11235,-2870
1721675664.394871,29,-79,988,105,10788,-1252
1721675664.404137,31,-122,993,1330,10570,-1243
1721675664.413403,78,-33,986,1252,9721,-210
1721675664.422669,47,28,961,797,8058,166,,,,84520,36598, 155683.400, 40.0104067,-105.2441822, 1618.679,1640.007, 9.504,7.891
1721675664.431935,-76,-40,965,2127,6168,-1383
1721675664.441201,-91,-5,982,3833,5153,-2984
1721675664.450467,-49,-27,981,4270,5617,-5250
1721675664.459733,-17,-49,983,4822,6431,-7158
1721675664.468999,-2,-55,983,5347,6965,-6265
1721675664.478265,-48,-44,981,5627,7682,-3973
1721675664.487531,16,-46,996,5819,8417,-3780
1721675664.496826,69,-35,997,6003,9240,-5565,14086,-2917,54638,84523,36603
1721675664.506092,34,-95,1006,6484,9003,-5653
1721675664.515358,26,-117,1019,6887,7507,-4620
1721675664.524624,-21,-181,1039,6528,5678,-5662
1721675664.533890,-155,-279,1048,6047,3972,-6178
1721675664.543156,-36,-115,1056,4323,3797,-7762
1721675664.552422,0,-129,1048,1243,5853,-10124
1721675664.561688,-15,-128,1043,-61,7350,-7175
1721675664.570953,12,-70,1043,-1820,8505,-6755,14196,-3137,54302,,, 155683.500, 40.0103989,-105.2441795, 1618.442,1639.770, 8.963,7.595
1721675664.580219,-11,17,1020,-3570,9502,-8917
1721675664.589485,52,-129,1002,-3797,9738,-7622
1721675664.598751,-43,-6,1005,-3001,9458,-5390
1721675664.608017,65,-195,976,-3640,8758,-7114
1721675664.617283,176,-253,999,-2940,8837,-7132
1721675664.626549,225,-240,992,-4410,7008,-5749
1721675664.635815,162,-251,986,-6737,3438,1120
1721675664.645081,65,-179,955,-9152,-753,5600,14361,-2746,54736,84527,36603, 155683.600, 40.0103912,-105.2441775, 1617.989,1639.317, 8.464,7.318
1721675664.654347,27,-66,961,-12145,-2599,4996
1721675664.663613,8,18,964,-13842,-1847,4130
1721675664.672879,-58,-105,978,-14070,-893,3736
1721675664.682145,-17,-97,995,-13238,-359,1907
1721675664.691411,24,-18,1013,-14822,411,-1803
1721675664.700677,23,-42,1017,-16143,148,-5705
1721675664.709943,-11,-67,996,-14892,-1462,-8068
1721675664.719238,10,15,986,-13518,-3457,-8908,13983,-2166,55249,84524,36605, 155683.700, 40.0103904,-105.2441785, 1617.869,1639.197, 8.009,7.019
1721675664.728507,0,87,986,-13081,-4419,-9450
1721675664.737776,-9,105,980,-11978,-4839,-10859
1721675664.747045,-56,136,991,-9432,-4620,-11043
1721675664.756314,-58,45,996,-6632,-3579,-8698
1721675664.765583,8,-52,1006,-3692,-1925,-6650
1721675664.774852,103,-30,1018,-2590,-149,-7097
1721675664.784121,113,-9,1022,-3307,-70,-8505
1721675664.793396,76,-31,1022,-3517,-1908,-8217,13372,-1959,55468,84512,36609
1721675664.802662,46,0,1034,-3403,-3947,-8497
1721675664.811928,5,42,1039,-3928,-5338,-9179
1721675664.821194,-59,20,1049,-3552,-6388,-8855
1721675664.830460,-89,16,1060,-1995,-6423,-6729
1721675664.839726,-81,-66,1065,-700,-5137,-3702
1721675664.848992,-48,-125,1083,-61,-2879,-2065
1721675664.858258,-66,-81,1111,-1023,-700,-4034
1721675664.867523,-88,-72,1108,-3132,1382,-6738,,,,,, 155683.800, 40.0103934,-105.2441805, 1617.964,1639.292, 7.611,6.759
1721675664.876792,-46,-91,1097,-4873,4191,-10903
1721675664.886061,31,-77,1107,-6186,6895,-14000
1721675664.895330,96,-68,1090,-7638,7997,-13580
1721675664.904599,125,-43,1077,-8575,7455,-11200
1721675664.913868,103,-31,1053,-8872,5390,-8908
1721675664.923137,55,-42,1035,-8548,2870,-7797
1721675664.932406,14,-32,1032,-7770,945,-2888
1721675664.941681,-55,-1,1040,-7315,140,-333,13134,-1519,55859,84520,36616, 155683.900, 40.0103982,-105.2441817, 1618.065,1639.393, 7.250,6.523
1721675664.950950,-124,-24,1042,-7131,218,-2337
1721675664.960219,-162,-14,1044,-6711,1837,-6143
1721675664.969488,-94,36,1032,-7245,5425,-10378
1721675664.978757,-8,59,1014,-8015,10045,-13939
1721675664.988026,21,53,1001,-7656,13046,-16398
1721675664.997295,29,47,981,-6580,13921,-15138
1721675665.006564,59,71,974,-5258,14113,-12618
1721675665.015808,66,70,967,-3806,13965,-11393,13171,-1342,55975,84526,36609, 155684.000, 40.0104002,-105.2441824, 1617.926,1639.254, 6.945,6.301
1721675665.025073,55,77,963,-1785,12705,-10702
1721675665.034338,68,104,957,412,10841,-11122
1721675665.043603,51,83,955,3080,8837,-12399
1721675665.052868,1,72,971,6125,6580,-13834
1721675665.062133,-23,62,982,8672,4987,-15488
1721675665.071398,-30,18,993,10894,4987,-18612
1721675665.080663,-12,-25,1007,12898,5985,-21210
1721675665.089935,21,-55,1013,13904,7463,-21998,12469,-1885,55590,84522,36616
1721675665.099200,70,-84,1032,13650,8820,-22077
1721675665.108465,130,-146,1050,12670,9152,-21280
1721675665.117730,114,-188,1058,11410,8242,-18314
1721675665.126995,101,-214,1056,8934,5958,-15567
1721675665.136260,61,-207,1061,5574,3762,-13580
1721675665.145525,4,-151,1049,1610,2187,-12504
1721675665.154790,17,-142,1035,-2100,1995,-12215
1721675665.164093,1,-127,1031,-4585,3307,-12172,12213,-1367,55914,,, 155684.100, 40.0104014,-105.2441836, 1617.838,1639.166, 6.682,6.090
1721675665.173358,-8,-86,1027,-6755,4637,-11480
1721675665.182623,27,-63,1017,-8216,6352,-11139
1721675665.191888,86,-60,1011,-8680,8400,-11235
1721675665.201153,153,-61,1013,-8513,9660,-10185
1721675665.210418,258,-81,1010,-8225,9730,-8829
1721675665.219683,247,366,1005,-8041,8050,-5312
1721675665.228948,229,14,957,-7866,3552,-622
1721675665.238220,-15,-109,979,-1732,-1593,7560,,,,84517,36614, 155684.200, 40.0104025,-105.2441840, 1617.682,1639.010, 6.482,5.911
1721675665.247485,39,93,978,-1610,-6143,-5250
1721675665.256750,119,35,963,-2441,-6213,-10448
1721675665.266015,77,102,979,-446,-7070,-12837
1721675665.275280,78,173,962,307,-8549,-16337
1721675665.284545,120,200,956,2494,-9555,-14263
1721675665.293810,184,50,964,6379,-10387,-11445
1721675665.303075,251,-50,974,10010,-11848,-11227
1721675665.312348,276,-117,976,10973,-14140,-10850,11126,-1538,55706,84523,36621, 155684.300, 40.0104021,-105.2441843, 1617.406,1638.734, 6.304,5.747
1721675665.321614,246,-155,993,10194,-17693,-6817
1721675665.330880,155,-139,1006,8269,-21429,-2345
1721675665.340146,55,-130,1013,6099,-24947,2117
1721675665.349412,-312,81,1030,4087,-26907,4182
1721675665.358678,-148,102,1034,2678,-26294,2598
1721675665.367944,-152,-19,1037,4664,-20580,-2923
1721675665.377210,-111,-37,1041,6432,-17527,-665
1721675665.386505,-150,-114,1037,6668,-13887,5337,10205,-1977,55297,84522,36629
1721675665.395771,-124,-109,1038,6432,-10072,5311
1721675665.405037,-18,-95,1051,4542,-5950,2633
1721675665.414303,69,-51,1053,2608,-2870,1916
1721675665.423569,105,-78,1050,1217,-1803,2030
1721675665.432835,116,-87,1060,438,-2144,2275
1721675665.442101,50,-153,1048,-700,-3509,2633
1721675665.451367,-52,-150,1041,-2117,-5189,2170
1721675665.460632,-73,-104,1041,-4191,-5714,2170,9802,-1568,55621,,, 155684.400, 40.0104015,-105.2441840, 1617.055,1638.383, 6.058,5.535
1721675665.469898,-47,-65,1057,-5652,-4148,2808
1721675665.479164,-49,-35,1071,-6580,-2442,813
1721675665.488430,-53,-51,1065,-6903,-1295,-2538
1721675665.497696,-27,-42,1061,-6658,78,-5049
1721675665.506962,11,-57,1056,-6431,1452,-5854
1721675665.516228,62,-93,1055,-6300,2467,-6292
1721675665.525494,120,-112,1062,-6947,3123,-6817
1721675665.534760,142,-122,1059,-8338,2467,-6580,9161,-1000,56060,84520,36629, 155684.500, 40.0104016,-105.2441836, 1616.686,1638.014, 5.843,5.342
1721675665.544026,164,-123,1052,-10097,551,-5390
1721675665.553292,162,-116,1054,-11357,-2100,-3859
1721675665.562558,92,-85,1064,-12022,-5600,-2135
1721675665.571824,-43,-39,1068,-12582,-9188,-1103
1721675665.581090,-98,59,1066,-12451,-11305,-2345
1721675665.590356,-88,66,1059,-11156,-10728,-4279
1721675665.599622,-47,1,1053,-8890,-9013,-5583
1721675665.608917,8,-41,1043,-6702,-7324,-6860,,,,84529,36632, 155684.600, 40.0104011,-105.2441830, 1616.203,1637.531, 5.646,5.167
1721675665.618183,-3,-43,1044,-5556,-6335,-3159
1721675665.627449,-35,-23,1045,-4970,-5758,4121
1721675665.636715,-31,-39,1056,-5302,-5058,6790
1721675665.645981,-36,-9,1053,-5810,-4183,6291
1721675665.655247,-18,52,1038,-7157,-3597,5250
1721675665.664513,-25,92,1025,-7656,-3282,3123
1721675665.673779,-45,105,1008,-6361,-3955,1085
1721675665.683045,-64,124,1011,-3718,-4568,-482,8831,-579,56280,84522,36636
1721675665.692311,-82,126,1014,-533,-4445,-2669
1721675665.701577,-81,86,1014,3360,-3632,-5495
1721675665.710843,-65,40,1015,7342,-2153,-7482
1721675665.720109,-46,-46,1014,10658,-595,-8593
1721675665.729375,-57,-113,1012,12557,682,-9074
1721675665.738641,18,-153,1012,12032,1706,-9153
1721675665.747907,59,-125,1020,9354,3211,-8313
1721675665.757172,78,-69,1016,5382,3368,-6257,8404,-817,56024,,, 155684.700, 40.0104008,-105.2441829, 1615.900,1637.228, 5.488,5.017
1721675665.766438,93,-40,1005,2450,2353,-3833
1721675665.775704,74,-7,995,1400,918,-1549
1721675665.784970,74,4,986,1654,-998,262
1721675665.794236,29,20,975,2765,-2730,1032
1721675665.803502,8,20,966,4130,-4297,980
1721675665.812768,0,12,966,5714,-4533,1023
1721675665.822034,19,-7,974,7202,-3754,1671
1721675665.831329,35,15,977,8392,-2590,3045,8282,-1232,55609,84522,36636, 155684.800, 40.0104013,-105.2441824, 1615.783,1637.111, 5.386,4.915
1721675665.840595,170,-32,973,9319,-1645,5285
1721675665.849861,234,-112,999,11095,-1155,8487
1721675665.859127,163,-97,1014,11113,-4288,12608
1721675665.868393,82,-87,1010,8960,-10019,14595
1721675665.877659,8,-52,1012,7324,-14272,14918
1721675665.886925,-23,-34,1010,6152,-16844,14735
1721675665.896191,-51,-17,1009,5644,-17702,14358
1721675665.905457,-54,-39,1022,5399,-17693,12215,7653,-1483,55114,84513,36647, 155684.900, 40.0104016,-105.2441813, 1615.765,1637.093, 5.301,4.835
1721675665.914723,-95,-72,1042,5329,-17282,9301
1721675665.923989,-80,59,1063,4340,-16582,7096
1721675665.933255,-137,89,1030,2652,-15085,4620
1721675665.942521,-131,76,1007,3150,-13178,2633
1721675665.951787,-143,73,990,3842,-11113,-35
1721675665.961053,-24,42,975,5084,-8689,-123
1721675665.970319,41,55,992,6195,-7377,-735
1721675665.979614,15,-25,1002,7167,-7867,-123,,,,84514,36638
1721675665.988880,18,-67,1017,8330,-9398,1522
1721675665.998146,-30,-52,1023,8007,-10999,2205
1721675666.007412,-56,-59,1020,6755,-12364,2135
1721675666.016678,-74,-76,1023,6300,-12338,2205
1721675666.025944,-93,-90,1021,5950,-11550,2528
1721675666.035210,-137,-80,1023,5268,-10308,2931
1721675666.044476,-80,-85,1025,4445,-8225,2310
1721675666.053742,-64,-154,1039,3885,-5154,1785,7055,-1782,54791,,, 155685.000, 40.0104013,-105.2441813, 1615.742,1637.070, 5.157,4.708
1721675666.063008,-49,-129,1050,2897,-3422,1916
1721675666.072274,-54,-104,1045,420,-2485,1260
1721675666.081540,-52,-96,1034,-1435,-1838,271
1721675666.090806,-42,-87,1034,-2555,-1383,-560
1721675666.100072,-21,-96,1036,-3421,-1024,-1610
1721675666.109338,-74,-37,1027,-4410,-1383,-3439
1721675666.118604,-96,8,1019,-5775,-2363,-6204
1721675666.127869,-118,30,1013,-5582,-2302,-9713,6311,-1531,54827,84525,36643, 155685.100, 40.0104005,-105.2441814, 1615.604,1636.932, 5.034,4.599
1721675666.137135,-133,11,1010,-4147,-1567,-12574
1721675666.146401,-134,-59,1030,-2143,-175,-14587
1721675666.155667,-123,-79,1055,-1373,1846,-16328
1721675666.164933,-102,-51,1062,-2852,4025,-18262
1721675666.174199,-208,1,1040,-5223,6002,-20029
1721675666.183465,-230,66,1021,-6588,7638,-21359
1721675666.192731,-129,136,1014,-7017,10753,-20755
1721675666.202026,-46,126,1011,-5713,13466,-22584,5554,-1129,55065,84519,36643
1721675666.211292,92,75,1021,-2800,13930,-22120
1721675666.220558,123,65,1026,27,12722,-20362
1721675666.229824,94,53,1024,1847,9178,-19110
1721675666.239090,54,-9,1025,3920,5258,-15864
1721675666.248356,-36,-50,1042,5732,1855,-12242
1721675666.257622,-86,-36,1054,5863,-219,-9809
1721675666.266888,-50,-27,1046,4892,-27,-9844
1721675666.276154,-27,18,1031,3920,1548,-11664,4479,-1110,54754,,, 155685.200, 40.0104004,-105.2441821, 1615.510,1636.838, 4.909,4.494
1721675666.285420,-56,34,1010,3115,2318,-13353
1721675666.294686,-8,8,1004,3885,2511,-14272
1721675666.303952,70,-48,1021,5434,2738,-15059
1721675666.313218,90,-44,1033,6204,1846,-16109
1721675666.322484,52,-53,1022,5452,-937,-15304
1721675666.331750,-5,-71,1024,4865,-4209,-14963
1721675666.341016,-60,-87,1033,4410,-6493,-14858
1721675666.350525,-85,-95,1038,3500,-7272,-14867,,,,84523,36654, 155685.300, 40.0103987,-105.2441829, 1615.237,1636.565, 4.781,4.395
1721675666.359791,-98,-98,1036,2004,-6414,-15015
1721675666.369057,-116,-85,1035,140,-5023,-15374
1721675666.378323,-98,-71,1030,-1645,-3518,-16914
1721675666.387589,-101,-95,1032,-3237,-1689,-19443
1721675666.396855,-66,-123,1040,-4366,-368,-20869
1721675666.406121,-14,-133,1049,-6300,988,-21508
1721675666.415387,28,-116,1045,-8942,1505,-20729
1721675666.424439,33,-62,1025,-12013,708,-18900,3186,-585,54956,84525,36654, 155685.400, 40.0103968,-105.2441837, 1614.943,1636.271, 4.664,4.307
1721675666.433705,29,0,1001,-14437,-1085,-16967
1721675666.442971,5,48,980,-15233,-3264,-15435
1721675666.452237,-23,67,976,-14542,-5320,-14149
1721675666.461503,-89,83,981,-12810,-6904,-13283
1721675666.470769,-162,69,1001,-10727,-7744,-13694
1721675666.480035,-217,80,1018,-8820,-6992,-15330
1721675666.489301,-212,83,1026,-7472,-4270,-17632
1721675666.498566,-139,78,1025,-6107,78,-20143,1885,299,55279,84524,36661
1721675666.507831,-86,40,1025,-4628,4243,-22724
1721675666.517096,-84,13,1028,-3211,6308,-23660
1721675666.526361,-58,24,1018,-2388,7078,-22199
1721675666.535626,-51,-20,1017,-2047,7743,-22750
1721675666.544891,-19,-11,1031,-1522,7796,-24054
1721675666.554156,-57,52,1024,-2310,7306,-25209
1721675666.563421,-119,68,1007,-2983,6230,-25962
1721675666.572693,-136,66,1012,-1601,6028,-25664,689,946,55364,,, 155685.500, 40.0103951,-105.2441839, 1614.675,1636.003, 4.588,4.241
1721675666.581958,-112,63,1021,482,7822,-25988
1721675666.591223,-74,34,1021,2477,10377,-27843
1721675666.600488,-18,21,1025,4253,12495,-29610
1721675666.609753,25,0,1022,5408,13912,-31334
1721675666.619018,47,-35,1023,6222,13720,-32480
1721675666.628283,44,-60,1029,7062,12223,-31623
1721675666.637548,40,-81,1038,7237,9975,-31264
1721675666.646851,39,-85,1044,6860,7901,-31553,,,,84525,36665, 155685.600, 40.0103950,-105.2441845, 1614.654,1635.982, 4.547,4.190
1721675666.656116,2,-80,1044,5740,6037,-32279
1721675666.665381,-40,-96,1037,4699,4296,-32804
1721675666.674646,-117,-96,1041,3842,3386,-33399
1721675666.683911,-106,-80,1043,2547,3885,-33714
1721675666.693176,-74,-55,1032,998,6466,-34799
1721675666.702441,75,-93,1020,-236,9248,-35534
1721675666.711706,110,-118,1029,-1067,11095,-34738
1721675666.720978,-261,148,1034,-2616,9318,-32883,-933,1837,55413,84526,36672, 155685.700, 40.0103947,-105.2441839, 1614.606,1635.934, 4.501,4.136
1721675666.730243,-317,223,1037,-4401,6833,-31080
1721675666.739508,-352,-16,1022,-1750,9905,-36199
1721675666.748773,-159,-14,1033,245,14227,-42263
1721675666.758038,-64,-46,1016,44,18383,-38850
1721675666.767303,-14,-69,1010,123,19652,-38317
1721675666.776568,2,39,1010,-87,20081,-37442
1721675666.785833,34,120,997,-770,19678,-36383
1721675666.795105,85,131,983,595,19363,-37879,-2093,2832,55786,84517,36665
1721675666.804370,136,93,985,3282,18646,-40084
1721675666.813635,157,27,985,6169,16843,-38877
1721675666.822900,255,21,980,8497,14078,-35648
1721675666.832165,234,20,998,10063,10736,-30354
1721675666.841430,16,-34,1012,11577,5635,-22357
1721675666.850695,50,-39,1005,12189,1688,-18095
1721675666.859960,82,-51,1001,11848,1058,-19373
1721675666.869263,102,-81,1007,11673,-280,-18542,-3540,3204,55450,,, 155685.800, 40.0103944,-105.2441839, 1614.466,1635.794, 4.442,4.089
1721675666.878528,113,-93,1005,11017,-2240,-19067
1721675666.887793,82,-106,1001,9109,-4507,-19513
1721675666.897058,61,-114,1004,7105,-6668,-18944
1721675666.906323,65,-132,1018,5627,-8042,-17920
1721675666.915588,37,-78,1042,3964,-8882,-15934
1721675666.924853,0,-13,1053,1330,-9407,-14149
1721675666.934118,-30,42,1060,-463,-9135,-13257
1721675666.943390,-83,127,1062,-735,-8234,-12452,-4815,3558,54882,84515,36674, 155685.900, 40.0103941,-105.2441845, 1614.216,1635.544, 4.374,4.039
1721675666.952655,-125,176,1044,175,-6808,-10912
1721675666.961920,-131,213,1022,2827,-4734,-10133
1721675666.971185,-128,161,1001,6703,-2162,-11087
1721675666.980450,-34,-32,1003,11235,367,-14062
1721675666.989715,249,-150,997,14385,2467,-15724
1721675666.998980,377,-297,1007,13747,2520,-13922
1721675667.008245,81,-253,1029,11454,-2345,-8085
1721675667.017517,100,-216,1040,6677,-8059,-587,,,,84527,36674, 155686.000, 40.0103927,-105.2441850, 1613.840,1635.168, 4.299,3.983
1721675667.026782,140,-189,1044,3045,-9450,7017
1721675667.036047,71,-154,1041,88,-10920,9975
1721675667.045312,-1,-93,1027,-2283,-12828,12775
1721675667.054577,-83,-36,1022,-3683,-13755,15225
1721675667.063842,-95,-9,1021,-3885,-13309,14262
1721675667.073107,-59,3,1022,-3543,-11533,11208
1721675667.082372,5,-7,1026,-3150,-9582,7358
1721675667.091675,11,-31,1023,-3036,-8418,6772,-5511,3503,54583,84522,36672
1721675667.100940,11,-37,1035,-3106,-8077,9415
1721675667.110205,6,-10,1054,-3298,-8077,11786
1721675667.119470,-13,36,1061,-3727,-8252,12801
1721675667.128735,-29,44,1056,-3535,-8453,13641
1721675667.138000,-78,43,1064,-2362,-8488,14078
1721675667.147265,-128,62,1068,-848,-7980,13895
1721675667.156530,-169,67,1070,735,-6782,13676
1721675667.165802,-193,85,1064,2695,-4323,11261,-5767,3564,54412,,, 155686.100, 40.0103898,-105.2441855, 1613.385,1634.713, 4.222,3.919
1721675667.175067,-157,60,1061,4699,-1400,7507
1721675667.184332,-103,70,1063,6703,1793,3351
1721675667.193597,-41,26,1069,7604,4663,-1549
1721675667.202862,-18,-63,1047,8488,6256,-5242
1721675667.212127,57,-124,1004,8829,6737,-7385
1721675667.221392,114,-204,964,7560,6615,-10072
1721675667.230657,144,-257,939,5977,4926,-8558
1721675667.239929,168,-290,925,3833,2450,-3588,-6176,3894,54418,84522,36681, 155686.200, 40.0103859,-105.2441859, 1612.809,1634.137, 4.142,3.857
1721675667.249194,179,-287,916,1129,-420,1636
1721675667.258459,88,-242,931,-1820,-3579,6326
1721675667.267724,10,-140,954,-4891,-6834,12678
1721675667.276989,-62,-38,970,-7778,-8689,19022
1721675667.286254,-101,53,987,-9800,-8978,19906
1721675667.295519,-118,84,1011,-10517,-7963,16625
1721675667.304784,-114,125,1011,-9712,-6414,12521
1721675667.314087,-26,197,1026,-8172,-4699,8995,-6665,4144,54229,84524,36681, 155686.300, 40.0103807,-105.2441871, 1611.994,1633.322, 4.064,3.791
1721675667.323356,6,95,1043,-5713,-3220,5705
1721675667.332625,19,66,1051,-2406,-3352,1216
1721675667.341894,-3,29,1047,-1006,-4682,1085
1721675667.351163,-41,36,1055,-35,-5968,2047
1721675667.360432,-110,90,1063,1304,-6817,5740
1721675667.369701,-179,113,1063,2328,-6712,7778
1721675667.378970,-167,83,1071,4270,-5005,8522
1721675667.388245,-153,55,1087,6528,-2022,4628,,,,84516,36692
1721675667.397514,-112,0,1099,7779,1006,-2582
1721675667.406783,-43,-43,1110,8374,3193,-6204
1721675667.416052,-25,-56,1098,8243,4427,-6869
1721675667.425321,-35,-90,1067,7543,4182,-8304
1721675667.434590,-10,-70,1044,6790,3517,-9914
1721675667.443859,20,-41,1027,6099,3176,-12277
1721675667.453128,59,0,988,5994,2843,-12425
1721675667.462402,49,-10,977,7070,1382,-7814,-7269,4296,54010,,, 155686.400, 40.0103754,-105.2441882, 1611.215,1632.543, 3.993,3.734
1721675667.471671,33,-35,964,9153,306,-4314
1721675667.480940,8,-64,936,11288,-307,393
1721675667.490209,-18,-50,934,12513,-280,6133
1721675667.499478,65,-135,948,12408,-123,8890
1721675667.508747,75,-146,936,12137,831,8356
1721675667.518016,111,-210,955,10352,113,7402
1721675667.527285,112,-223,981,8234,-1155,7280
1721675667.536530,54,-122,990,5137,-3422,7866,-7653,3930,53582,84514,36690, 155686.500, 40.0103708,-105.2441889, 1610.517,1631.845, 3.928,3.683
1721675667.545799,-42,38,995,1899,-6152,8050
1721675667.555068,-121,80,996,1042,-7875,8338
1721675667.564337,-176,35,1009,2923,-7552,6536
1721675667.573606,-153,-17,1013,5023,-5417,595
1721675667.582875,-121,-128,1021,6187,-2284,-4017
1721675667.592144,-123,-188,1033,5767,656,-8374
1721675667.601413,-119,-208,1034,3570,2922,-8217
1721675667.610657,-51,-215,1044,1007,5013,-1812,-7940,4376,53662,84525,36696, 155686.600, 40.0103669,-105.2441897, 1609.876,1631.204, 3.866,3.635
1721675667.619926,-30,-195,1058,-2047,6685,3473
1721675667.629195,-35,-173,1057,-5573,6903,3456
1721675667.638464,-33,-136,1050,-8636,6615,2450
1721675667.647733,-31,-58,1040,-10850,6221,2275
1721675667.657002,7,-52,1021,-11672,5853,3071
1721675667.666271,5,-40,1004,-10981,5320,7157
1721675667.675540,28,-56,1004,-10211,4628,10640
1721675667.684815,6,-62,1014,-9117,4751,12215,-7757,4913,54364,84519,36698
1721675667.694081,-55,-45,1027,-8312,4690,14428
1721675667.703347,-159,12,1042,-8181,4576,16441
1721675667.712613,-224,60,1058,-8303,5722,15155
1721675667.721879,-199,130,1079,-7612,8338,8916
1721675667.731145,-161,146,1094,-5976,11296,691
1721675667.740411,-127,172,1098,-3508,13588,-11104
1721675667.749677,-89,154,1094,-927,15286,-19627
1721675667.758942,-34,103,1083,2398,16450,-20974,,,,,, 155686.700, 40.0103639,-105.2441907, 1609.343,1630.671, 3.808,3.588
1721675667.768207,54,33,1066,5583,17237,-20624
1721675667.777472,131,-11,1041,7595,17412,-21683
1721675667.786737,163,29,1033,8514,16563,-23065
1721675667.796002,117,-31,1031,9389,14498,-23967
1721675667.805267,93,-74,1031,10527,12092,-25183
1721675667.814532,118,-150,1032,10824,10001,-21980
1721675667.823797,102,-168,1028,10623,8102,-18078
1721675667.833069,84,-155,1016,8812,5661,-16494,-8380,5468,54351,84523,36694, 155686.800, 40.0103610,-105.2441915, 1608.774,1630.102, 3.742,3.539
1721675667.842334,60,-111,1002,6117,3307,-18087
1721675667.851599,23,-99,988,3912,997,-20204
1721675667.860864,-20,-114,980,3089,-937,-20869
1721675667.870129,-62,-131,984,2617,-2284,-18953
1721675667.879394,-97,-144,991,1925,-2800,-15243
1721675667.888659,-131,-172,995,832,-2582,-10255
1721675667.897924,-158,-191,1003,-420,-1654,-3308
1721675667.907227,-169,-133,1007,-2450,148,4235,-8874,5932,54364,84518,36701, 155686.900, 40.0103580,-105.2441922, 1608.210,1629.538, 3.672,3.481
1721675667.916492,-124,-80,1001,-5206,2668,8741
1721675667.925757,-52,-77,1002,-6562,5705,10456
1721675667.935022,10,-62,1008,-7070,7953,10421
1721675667.944287,41,-57,1012,-7813,8863,10640
1721675667.953552,75,1,1022,-8356,8540,9913
1721675667.962817,103,100,1044,-8916,7831,5678
1721675667.972082,188,463,1062,-8898,6501,-2652
1721675667.981354,109,506,1056,-6168,4252,-4288,-9088,6121,54376,84523,36707
1721675667.990619,27,227,1066,2188,1155,-4944
1721675667.999884,-18,103,1082,9415,-307,-12924
1721675668.009149,-50,-30,1057,12767,-97,-8645
1721675668.018414,-27,-119,1038,15225,1750,927
1721675668.027679,18,-196,1027,15715,4480,4637
1721675668.036944,92,-235,1022,14683,6790,3202
1721675668.046209,307,-317,1000,12635,7463,2152
1721675668.055573,240,-478,999,9844,5573,4147,-8666,5914,54479,,, 155687.000, 40.0103552,-105.2441929, 1607.720,1629.048, 3.609,3.428
1721675668.064838,-284,-330,1072,4673,-202,11558
1721675668.074103,-66,-130,998,-1312,-3448,24832
1721675668.083368,-64,-55,1003,-5250,-88,38683
1721675668.092633,-36,-47,984,-5381,1505,31972
1721675668.101898,8,-17,982,-4725,2476,15732
1721675668.111163,-52,-130,987,-3570,3368,8076
1721675668.120428,10,-197,996,-2266,4252,10071
1721675668.129639,67,-142,1003,-3185,5713,9607,,,,84519,36707, 155687.100, 40.0103529,-105.2441933, 1607.267,1628.595, 3.553,3.376
1721675668.138904,74,-108,1000,-5372,6168,10421
1721675668.148169,105,-68,1009,-6851,5477,11348
1721675668.157434,89,-10,1018,-8041,4130,9423
1721675668.166699,72,-31,1002,-8758,1855,8461
1721675668.175964,28,-46,991,-8662,-394,10701
1721675668.185229,-15,65,1004,-8461,-2240,12617
1721675668.194494,-136,228,1003,-7656,-2765,15697
1721675668.203766,-202,315,1002,-5048,-1882,16651,-8489,6103,54760,84520,36710, 155687.200, 40.0103510,-105.2441940, 1606.950,1628.278, 3.501,3.328
1721675668.213031,-175,235,998,-332,1785,8890
1721675668.222296,-51,81,996,5215,7306,-4664
1721675668.231561,92,-13,1008,9118,12258,-18297
1721675668.240826,141,-126,1030,11025,14936,-30205
1721675668.250091,179,-144,1024,11507,14735,-34817
1721675668.259356,208,-129,1028,9809,12031,-27545
1721675668.268621,143,-110,1016,8050,8242,-23293
1721675668.277893,25,-94,1002,6563,3885,-20423,-9356,6689,54650
1721675668.287158,8,-114,998,5994,700,-15584
1721675668.296423,-23,-103,1011,5705,-263,-12119
1721675668.305688,-28,-107,1019,4699,-298,-10763
1721675668.314953,16,-119,1034,3640,857,-11165
1721675668.324218,80,-159,1049,2302,2546,-12495
1721675668.333483,124,-175,1048,805,3106,-12119
1721675668.342748,148,-188,1050,-1785,2126,-10920
1721675668.352051,109,-128,1059,-4663,17,-7560,-10003,7507,54779,84520,36714, 155687.300, 40.0103491,-105.2441942, 1606.624,1627.952, 3.450,3.281
1721675668.361316,51,-46,1059,-7367,-2704,-2608
1721675668.370581,35,-12,1053,-8942,-5119,682
1721675668.379846,46,-25,1034,-8688,-6510,1312
1721675668.389111,-7,-80,1020,-7656,-7324,1706
1721675668.398376,-6,-33,1009,-6352,-7683,3360
1721675668.407641,-5,6,998,-5600,-6922,6011
1721675668.416906,34,3,1008,-4523,-5285,4847
1721675668.426178,84,-12,1027,-3272,-3535,2817,,,,84520,36714, 155687.400, 40.0103478,-105.2441950, 1606.332,1627.660, 3.401,3.233
1721675668.435443,92,0,1042,-2388,-2529,-902
1721675668.444708,29,-24,1047,-2275,-2940,-7228
1721675668.453973,0,-9,1040,-2275,-3693,-10798
1721675668.463238,4,-9,1028,-1785,-3877,-9634
1721675668.472503,16,-10,1029,-857,-3667,-10588
1721675668.481768,66,-18,1026,-271,-3465,-13090
1721675668.491033,44,0,1024,412,-3343,-14700
1721675668.500336,-30,49,1024,1085,-3702,-14097,-10900,8215,54797,84522,36723
1721675668.509601,-62,77,1022,1978,-3325,-14490
1721675668.518866,7,41,1007,3457,-1453,-18717
1721675668.528131,132,-53,989,5364,1067,-25585
1721675668.537396,193,-93,986,6598,1995,-33259
1721675668.546661,156,-110,991,6440,498,-39148
1721675668.555926,67,-56,1011,6125,-2407,-40084
1721675668.565191,-81,0,1032,5670,-4883,-38938
1721675668.574463,-156,30,1049,5819,-5845,-38255,-12652,9814,54406,,, 155687.500, 40.0103461,-105.2441954, 1605.997,1627.326, 3.354,3.188
1721675668.583728,-136,29,1059,6633,-4349,-43987
1721675668.592993,-93,-1,1059,7700,-1217,-51162
1721675668.602258,-7,20,1067,8619,1653,-57208
1721675668.611523,-56,-56,1081,9328,3858,-60253
1721675668.620788,7,-119,1087,10448,5013,-63517
1721675668.630053,133,-101,1077,10632,6361,-59115
1721675668.639318,219,-82,1076,10010,6352,-52037
1721675668.648590,240,-110,1079,9765,3578,-46594,-14190,11456,53991,84521,36727, 155687.600, 40.0103452,-105.2441958, 1605.696,1627.024, 3.306,3.143
1721675668.657855,169,-133,1080,9765,-998,-33513
1721675668.667120,119,-99,1077,8995,-6038,-16030
1721675668.676385,62,-81,1067,7315,-9783,-3885
1721675668.685650,-37,-88,1054,5749,-11795,-3754
1721675668.694915,-103,-71,1045,4498,-12837,-8287
1721675668.704180,-63,-43,1032,3728,-12224,-10964
1721675668.713445,-16,-36,1028,3334,-10448,-13572
1721675668.722748,36,-16,1026,3264,-9617,-17588,-16009,13012,53381,84519,36725, 155687.700, 40.0103438,-105.2441962, 1605.485,1626.813, 3.268,3.104
1721675668.732013,60,-8,1022,2835,-9328,-19093
1721675668.741278,45,-28,1027,3019,-10229,-18734
1721675668.750543,-23,-19,1026,3238,-12320,-19583
1721675668.759808,-86,2,1035,3142,-13843,-21735
1721675668.769073,-165,-17,1042,3562,-13432,-23879
1721675668.778338,-190,-76,1038,4874,-12312,-26714
1721675668.787603,-212,-143,1027,5889,-9310,-30757
1721675668.796875,-196,-223,1019,6484,-5434,-31387,,,,84519,36730
1721675668.806140,-152,-266,1009,6230,-1278,-24894
1721675668.815405,-107,-241,997,4725,1977,-13274
1721675668.824670,-58,-213,978,2144,4541,-1628
1721675668.833935,5,-231,947,-87,5836,5451
1721675668.843200,41,-281,936,-1916,6002,7918
1721675668.852465,68,-287,933,-4138,5083,7000
1721675668.861730,110,-279,918,-7367,3788,6510
1721675668.871002,119,-298,908,-10832,2275,5766,-16400,13928,53588,84525,36738, 155687.800, 40.0103430,-105.2441969, 1605.336,1626.664, 3.226,3.060
1721675668.880267,87,-336,908,-14332,411,-1234
1721675668.889532,140,-281,925,-17832,-1392,-10002
1721675668.898797,121,-148,944,-21708,-2757,-8829
1721675668.908062,62,-47,953,-23703,-4883,3500
1721675668.917327,14,3,976,-23756,-6852,13300
1721675668.926592,-41,26,1015,-22478,-7797,15863
1721675668.935857,-57,70,1040,-20851,-8147,17281
1721675668.945160,-38,122,1044,-19670,-7963,16756,-17053,15386,53808,,, 155687.900, 40.0103423,-105.2441973, 1605.115,1626.443, 3.185,3.018
1721675668.954425,-58,185,1052,-17920,-7945,13396
1721675668.963690,-121,170,1059,-14945,-8339,9835
1721675668.972955,-217,162,1078,-10762,-8024,6378
1721675668.982220,-258,142,1063,-6991,-6379,4313
1721675668.991485,-235,94,1053,-2913,-2599,9047
1721675669.000750,-228,-14,1047,1523,2117,13518
1721675669.010015,-210,-162,1060,5565,6203,16712
1721675669.019287,-152,-246,1074,7595,10115,22155,-16564,15203,54089,84525,36736, 155688.000, 40.0103423,-105.2441980, 1604.882,1626.210, 3.141,2.976
1721675669.028552,-4,-266,1073,6677,13466,30870
1721675669.037817,6,-325,1066,3570,15592,31211
1721675669.047082,0,-315,1060,-367,14848,19696
1721675669.056347,7,-253,1041,-5573,13763,10456
1721675669.065612,27,-204,1023,-9975,12731,10622
1721675669.074877,7,-174,1011,-12530,11270,18681
1721675669.084142,-41,-117,1005,-14017,9161,28253
1721675669.093414,-109,-88,991,-15435,7700,31185,-15447,15655,55273,84520,36741
1721675669.102679,-151,-73,977,-16283,8050,25620
1721675669.111944,-125,-72,963,-16773,10780,17911
1721675669.121209,-21,-106,942,-16686,14883,15645
1721675669.130474,63,-108,945,-16572,18462,19416
1721675669.139739,190,-170,991,-17053,19950,23861
1721675669.149004,235,-150,991,-18033,19162,26328
1721675669.158269,256,-84,996,-20991,15417,26635
1721675669.167572,215,25,988,-23738,10683,22653,,,,,, 155688.100, 40.0103416,-105.2441983, 1604.709,1626.037, 3.100,2.936
1721675669.176837,179,23,980,-25418,5241,15295
1721675669.186102,128,66,989,-24762,831,8540
1721675669.195367,43,107,990,-23808,-2897,7113
1721675669.204632,-8,138,991,-22111,-5250,10946
1721675669.213897,-36,139,1005,-19372,-5408,17360
1721675669.223162,-20,157,1026,-16213,-3964,24167
1721675669.232427,15,145,1034,-13168,-1750,29662
1721675669.241699,66,110,1040,-10062,367,31316,-15258,16412,55718,84521,36750, 155688.200, 40.0103414,-105.2441990, 1604.566,1625.894, 3.063,2.901
1721675669.250964,98,49,1061,-7420,1601,28962
1721675669.260229,129,22,1081,-5845,1260,24482
1721675669.269494,125,-18,1094,-5328,-499,21647
1721675669.278759,91,7,1089,-5232,-3395,21175
1721675669.288024,49,47,1069,-5906,-6519,22575
1721675669.297289,-9,81,1042,-5906,-8847,25033
1721675669.306554,-76,79,1023,-4383,-10299,28516
1721675669.315827,-121,55,1011,-1662,-10212,33661,-14947,15496,55517,84517,36747, 155688.300, 40.0103409,-105.2441994, 1604.450,1625.778, 3.035,2.871
1721675669.325093,-95,19,1006,1470,-8112,40293
1721675669.334359,-47,-59,1022,4227,-4708,46523
1721675669.343625,45,-104,1047,6178,-1733,49525
1721675669.352891,160,-184,1071,6073,647,48475
1721675669.362157,226,-230,1088,5189,857,44266
1721675669.371423,191,-213,1076,2214,-2205,40416
1721675669.380689,199,-177,1059,-1828,-6764,33635
1721675669.390015,180,-147,1033,-5468,-10500,23931,-15014,14624,55297,84522,36754
1721675669.399281,135,-140,1016,-8128,-14394,18007
1721675669.408547,43,-124,1021,-9765,-17947,18506
1721675669.417813,14,162,1016,-11191,-20222,24430
1721675669.427079,66,294,1024,-11882,-19942,35411
1721675669.436345,-43,884,1060,-7665,-18638,58905
1721675669.445611,-272,779,1050,-1513,-16722,54040
1721675669.454877,-221,-92,1119,11769,-12417,15601
1721675669.464142,-150,-388,1138,20563,-6580,-9538,-15093,14111,55004,,, 155688.400, 40.0103402,-105.2441998, 1604.348,1625.676, 3.010,2.847
1721675669.473408,-115,-226,1082,16862,-2844,2476
1721675669.482674,-97,-130,1036,9468,-1313,17605
1721675669.491940,-72,49,961,5732,-219,17368
1721675669.501206,7,-31,926,4839,892,13720
1721675669.510472,52,-25,925,6607,2476,12722
1721675669.519738,21,-9,919,7289,3456,6676
1721675669.529004,21,-23,944,7289,4235,-1628
1721675669.538300,24,-77,944,7245,5110,-4489,,,,84519,36761, 155688.500, 40.0103399,-105.2442000, 1604.297,1625.625, 2.980,2.820
1721675669.547566,85,-61,967,6957,5425,-3894
1721675669.556832,129,-41,964,5320,5416,490
1721675669.566098,124,-52,960,3404,4086,4436
1721675669.575364,105,-15,967,1899,1400,7796
1721675669.584630,3,45,978,709,-1619,12696
1721675669.593896,-107,20,993,482,-4253,19206
1721675669.603162,-238,-76,996,1182,-5434,26993
1721675669.612427,-325,-154,1007,1295,-4340,28735,-14959,13922,55029,84523,36756, 155688.600, 40.0103399,-105.2442003, 1604.206,1625.534, 2.952,2.793
1721675669.621692,-291,-128,1018,-577,-44,18488
1721675669.630957,-160,-54,1001,-3981,6588,2992
1721675669.640222,-61,15,1000,-6781,13090,-11262
1721675669.649487,6,18,1008,-8146,17027,-21840
1721675669.658752,136,-4,1010,-8207,18567,-29479
1721675669.668017,171,-35,1009,-7892,18165,-33032
1721675669.677282,128,-1,1022,-7831,15391,-31964
1721675669.686554,174,86,1033,-8137,11620,-24807,-14886,15283,55712,84525,36767
1721675669.695819,120,136,1032,-7446,8522,-11594
1721675669.705084,35,44,1035,-4768,5486,6562
1721675669.714349,25,24,1037,-1951,3745,24937
1721675669.723614,-8,3,1020,-1163,3955,36111
1721675669.732879,-22,-124,1019,-1085,4375,39978
1721675669.742144,14,-140,1025,-2021,4768,34238
1721675669.751409,-5,-175,1022,-5022,4663,21428
1721675669.760712,37,-78,1026,-8365,3535,7805,-14813,15710,56018,,, 155688.700, 40.0103393,-105.2442004, 1604.117,1625.445, 2.925,2.768
1721675669.769977,152,105,1044,-11891,2450,-1339
1721675669.779242,179,209,1078,-13518,770,-7700
1721675669.788507,191,223,1109,-12066,-2162,-11095
1721675669.797772,139,160,1125,-8811,-5198,-6825
1721675669.807037,-12,27,1097,-6046,-8138,1618
1721675669.816302,-92,-32,1057,-4707,-9477,8225
1721675669.825567,-132,-57,1034,-5013,-7727,5311
1721675669.834839,-122,45,1036,-6177,-4935,-5548,-15545,17181,56134,84522,36774, 155688.800, 40.0103385,-105.2442005, 1603.909,1625.237, 2.897,2.734
1721675669.844104,-138,171,1049,-7472,-1995,-19408
1721675669.853369,-85,155,1059,-6816,428,-33487
1721675669.862634,25,153,1063,-4296,2651,-41817
1721675669.871899,147,122,1049,-1986,3885,-41318
1721675669.881164,255,63,1035,359,2817,-34187
1721675669.890429,204,61,1030,2240,-429,-18848
1721675669.899694,-15,6,1034,3719,-5285,2047
1721675669.908966,-178,-52,1032,4944,-8532,15898,,,,84524,36772, 155688.900, 40.0103379,-105.2442007, 1603.771,1625.099, 2.870,2.702
1721675669.918231,-230,-76,1040,4795,-7210,16537
1721675669.927496,-202,-29,1039,3474,-2555,4873
1721675669.936761,-159,5,1033,1707,3281,-11585
1721675669.946026,-50,-27,1020,937,8006,-21009
1721675669.955291,168,86,1019,858,11497,-26075
1721675669.964556,321,217,1034,770,12372,-24089
1721675669.973821,345,170,1032,2328,9222,-16704
1721675669.983124,252,50,1026,5207,3403,-867,-15466,17492,55963,84519,36770
1721675669.992389,129,-121,1014,7595,-2302,19775
1721675670.001654,-68,-113,1022,8024,-6152,37406
1721675670.010919,-192,-44,1039,6213,-8164,48440
1721675670.020184,-201,25,1052,3859,-6239,40565
1721675670.029449,-145,127,1061,2739,-1987,22443
1721675670.038714,-10,241,1066,3124,2537,6396
1721675670.047979,91,324,1069,5697,6396,-3728
1721675670.057251,153,349,1082,10238,8111,-7762,-15460,16955,56091,,, 155689.000, 40.0103374,-105.2442008, 1603.629,1624.957, 2.845,2.673
1721675670.066516,187,204,1096,16065,8006,-8532
1721675670.075781,200,81,1102,21315,6562,-8497
1721675670.085046,159,154,1106,23608,3955,-5425
1721675670.094311,117,95,1090,24168,831,-3798
1721675670.103576,55,12,1075,25804,-1637,-11743
1721675670.112841,-2,-47,1049,26705,-2835,-19268
1721675670.122106,-76,-85,1028,26837,-2914,-21289
1721675670.131378,-122,-112,1010,26539,-1812,-20624,-15740,16668,55749,84523,36778, 155689.100, 40.0103370,-105.2442012, 1603.513,1624.841, 2.821,2.645
1721675670.140643,-101,-104,993,26084,245,-15873
1721675670.149908,-62,-86,987,25253,2817,-8050
1721675670.159173,19,-117,984,24352,4847,-2267
1721675670.168438,58,-310,978,23223,6212,-2258
1721675670.177703,101,-250,969,20467,5967,-2765
1721675670.186968,65,-207,955,15138,4401,4270
1721675670.196233,17,-182,969,10798,1916,10115
1721675670.205536,-104,-238,968,7149,-377,12915,-15374,17144,56237,84522,36785
1721675670.214801,-241,-318,960,3325,-1514,7621
1721675670.224066,-253,-373,949,-1522,-508,-3238
1721675670.233331,-232,-348,944,-6746,2590,-6755
1721675670.242596,-141,-276,953,-12057,6326,927
1721675670.251861,-83,-148,964,-16791,10018,10902
1721675670.261126,-26,-10,994,-20413,12530,16091
1721675670.270391,-54,268,1029,-22338,13991,19346
1721675670.279663,3,342,1053,-22260,14901,16003,,,,84525,36787, 155689.200, 40.0103362,-105.2442012, 1603.366,1624.694, 2.797,2.618
1721675670.288928,63,296,1062,-19040,15986,-2205
1721675670.298193,96,152,1029,-14393,15671,-15103
1721675670.307458,131,90,972,-9878,14288,-12775
1721675670.316723,207,144,920,-6562,12267,2835
1721675670.325988,272,22,872,-3342,9695,18427
1721675670.335253,301,-36,862,-113,6273,19591
1721675670.344518,282,55,891,499,1898,14542
1721675670.353912,213,92,945,-26,-2870,11226,-15014,17596,56750,,, 155689.300, 40.0103354,-105.2442011, 1603.225,1624.553, 2.776,2.595
1721675670.363177,172,86,994,499,-7534,9931
1721675670.372442,140,31,1018,1295,-11708,12696
1721675670.381707,52,-51,1040,1733,-15313,17150
1721675670.390972,-7,17,1046,1208,-17947,19188
1721675670.400237,-101,-5,1060,44,-19207,21516
1721675670.409502,-168,-36,1075,27,-18542,18156
1721675670.418767,-145,33,1086,-280,-15532,8811
1721675670.427948,-117,100,1103,-1330,-10955,-6239,-16015,18560,56195,84522,36794, 155689.400, 40.0103349,-105.2442010, 1603.133,1624.461, 2.757,2.572
1721675670.437213,-76,102,1111,-1750,-6239,-26758
1721675670.446478,-27,69,1113,-1128,-1864,-43523
1721675670.455743,-57,-42,1115,-140,1373,-50138
1721675670.465008,-95,-24,1103,753,3395,-46104
1721675670.474273,-87,20,1090,945,5320,-36505
1721675670.483538,-48,-86,1078,1453,7997,-39489
1721675670.492803,93,-149,1047,1960,10753,-54338
1721675670.502075,156,-207,1016,937,12687,-61592,-16156,20428,56707,84515,36792
1721675670.511340,147,-221,985,-673,11952,-53428
1721675670.520605,139,-188,962,-2546,10036,-35543
1721675670.529870,137,-134,966,-4882,8548,-16695
1721675670.539135,91,-6,993,-7210,7262,-1794
1721675670.548400,95,108,1021,-8697,6037,9878
1721675670.557665,166,146,1037,-8242,5617,14017
1721675670.566930,171,157,1065,-6186,4760,14122
1721675670.576233,201,140,1078,-3762,2878,13571,,,,,, 155689.500, 40.0103338,-105.2442005, 1603.008,1624.336, 2.737,2.550
1721675670.585498,173,89,1087,-1277,630,14971
1721675670.594763,134,26,1090,1068,-2118,18252
1721675670.604028,134,-11,1100,2643,-4463,22863
1721675670.613293,77,-7,1112,3194,-6248,27133
1721675670.622558,23,76,1114,2730,-7280,29207
1721675670.631823,45,115,1095,2380,-6834,25620
1721675670.641088,156,25,1063,3238,-4822,12591
1721675670.650360,168,-48,1041,4874,-3422,-2363,-16107,20092,56604,84529,36796, 155689.600, 40.0103330,-105.2442001, 1602.868,1624.196, 2.717,2.528
1721675670.659625,170,-123,1020,5583,-3763,-11305
1721675670.668890,118,-124,1001,5565,-4533,-13913
1721675670.678155,80,-129,987,4743,-5828,-9582
1721675670.687420,57,-142,981,4104,-6580,-2170
1721675670.696685,29,-146,978,3203,-7315,5923
1721675670.705950,-10,-76,976,1750,-8260,15601
1721675670.715215,-45,-13,965,158,-9214,29846
1721675670.724487,-73,49,962,-472,-9494,44292,-16296,19549,56274,84518,36796, 155689.700, 40.0103324,-105.2441999, 1602.772,1624.100, 2.698,2.509
1721675670.733752,-79,96,962,-367,-8855,50321
1721675670.743017,-55,110,959,368,-7429,47355
1721675670.752282,9,23,958,1873,-5880,37345
1721675670.761547,-25,15,978,3728,-4900,21560
1721675670.770812,-70,-51,996,4052,-4480,-184
1721675670.780077,-69,-109,1018,4585,-3667,-11839
1721675670.789342,-290,-28,998,4288,-2328,-3684
1721675670.798645,-370,80,981,3002,-1593,19766,-15960,18487,56292,84519,36810
1721675670.807910,104,85,936,3649,3281,40626
1721675670.817175,303,-137,931,5915,8382,45211
1721675670.826440,193,-329,937,6790,6028,37782
1721675670.835705,128,-259,933,3500,1190,34658
1721675670.844970,101,-167,954,-2581,-1322,39585
1721675670.854235,74,-137,975,-7542,-1908,41072
1721675670.863500,14,-148,996,-10797,-1593,40810
1721675670.872772,15,-97,1015,-13991,-875,42822,-15423,17712,56445,,, 155689.800, 40.0103323,-105.2441998, 1602.662,1623.990, 2.679,2.490
1721675670.882037,127,-62,1015,-17316,210,49113
1721675670.891302,113,-62,1023,-19468,26,54845
1721675670.900567,90,51,1038,-21218,-2695,54696
1721675670.909832,105,155,1016,-23231,-5670,51800
1721675670.919097,132,185,992,-23528,-7849,43548
1721675670.928362,103,213,986,-21630,-9870,33276
1721675670.937627,107,244,990,-18690,-11813,26801
1721675670.946900,131,267,1006,-15041,-12845,22636,,,,84514,36807, 155689.900, 40.0103323,-105.2442000, 1602.550,1623.878, 2.663,2.472
1721675670.956166,131,217,1006,-11130,-13510,17587
1721675670.965432,74,139,1017,-6903,-14158,11278
1721675670.974698,23,23,1029,-3710,-15252,7630
1721675670.983964,-2,-80,1040,-1645,-15715,5888
1721675670.993230,-11,-46,1056,-1478,-15952,5923
1721675671.002496,-28,17,1065,-2905,-16057,5801
1721675671.011762,-104,29,1085,-3683,-15812,-674
1721675671.021057,-315,75,1099,-3473,-15015,-10395,-16278,18164,55889,84523,36819, 155690.000, 40.0103321,-105.2442001, 1602.451,1623.779, 2.646,2.455
1721675671.030323,-222,-36,1120,-2843,-11962,-15190
1721675671.039589,-42,-114,1108,-1207,-5434,-8155
1721675671.048855,-63,-110,1087,-918,621,-12522
1721675671.058121,9,-88,1091,-2108,4436,-26277
1721675671.067387,117,-94,1091,-3272,7630,-25410
1721675671.076653,132,-58,1082,-4261,9073,-22243
1721675671.085919,96,-26,1065,-5110,7988,-18174
1721675671.095184,51,-29,1046,-5285,6238,-11900,-16430,19409,56231,84525,36819
1721675671.104450,38,-3,1016,-5495,5145,-7753
1721675671.113716,72,2,986,-5652,4733,-3807
1721675671.122982,95,16,983,-5258,4392,-604
1721675671.132248,123,41,987,-4628,3806,-613
1721675671.141514,216,28,981,-4130,3298,-1663
1721675671.150780,307,97,1016,-3508,2835,-44
1721675671.160046,369,104,1043,-3290,437,5285
1721675671.169342,358,87,1076,-2336,-4165,9336,-17132,19934,55914,,, 155690.100, 40.0103321,-105.2442001, 1602.353,1623.681, 2.628,2.436
1721675671.178608,254,151,1100,-2100,-10492,9388
1721675671.187874,178,220,1107,-2738,-16582,7875
1721675671.197140,156,210,1113,-2126,-20825,4296
1721675671.206406,127,218,1116,-17,-23520,-2818
1721675671.215672,72,223,1110,2092,-25787,-11743
1721675671.224938,-9,225,1110,4489,-27607,-18752
1721675671.234204,-129,103,1105,7744,-28657,-20930
1721675671.243469,-159,-87,1125,11454,-27642,-18979,-18780,20635,54675,84519,36819, 155690.200, 40.0103321,-105.2442003, 1602.288,1623.616, 2.609,2.418
1721675671.252738,-97,-187,1096,13117,-24255,-13432
1721675671.262007,-40,-216,1095,12067,-21280,-4192
1721675671.271276,8,-215,1077,9030,-19093,726
1721675671.280545,10,-177,1047,5513,-18813,-902
1721675671.289814,1,-141,1030,1934,-19557,-6755
1721675671.299083,5,-143,1010,-901,-20187,-15724
1721675671.308352,-10,-157,999,-2651,-20703,-23993
1721675671.317627,-26,-184,996,-4340,-21289,-27300,,,,84524,36825, 155690.300, 40.0103319,-105.2442003, 1602.223,1623.551, 2.591,2.402
1721675671.326896,-84,-219,1012,-6195,-21735,-26740
1721675671.336165,-280,-112,1030,-8741,-21569,-25445
1721675671.345434,-324,-10,1033,-11961,-19915,-22497
1721675671.354703,-368,62,1036,-13536,-15129,-21403
1721675671.363972,-366,162,1030,-13422,-9354,-21263
1721675671.373241,-371,388,1034,-11882,-2949,-20178
1721675671.382510,-296,638,1034,-8312,3403,-16748
1721675671.391785,-95,460,1012,-367,9135,385,-19683,22253,54309,84524,36825
1721675671.401054,68,107,1011,10605,12810,27737
1721675671.410323,107,-12,992,17054,13833,37310
1721675671.419592,74,7,976,17177,12311,31036
1721675671.428861,58,-12,974,15619,9896,20641
1721675671.438130,149,-51,969,14315,7708,11716
1721675671.447399,393,29,925,12898,5967,7673
1721675671.456668,-317,-194,991,12032,1960,15837
1721675671.465912,-223,22,942,11979,-3072,37266,-18981,20526,54406,,, 155690.400, 40.0103320,-105.2442003, 1602.128,1623.456, 2.573,2.385
1721675671.475177,-240,193,950,9118,1662,45220
1721675671.484442,-208,254,941,9617,6518,34142
1721675671.493707,-117,155,972,12399,10727,16187
1721675671.502972,16,18,985,15199,14131,-4235
1721675671.512237,22,-26,974,16048,14481,-20134
1721675671.521502,-29,45,969,14490,11698,-28525
1721675671.530767,-129,115,967,12635,8583,-33487
1721675671.540039,-211,87,964,12670,6536,-38457,-19281,22442,54699,84523,36830, 155690.500, 40.0103320,-105.2442002, 1602.075,1623.403, 2.559,2.374
1721675671.549308,-205,2,956,14062,6588,-47959
1721675671.558577,-119,-151,945,15497,8461,-59168
1721675671.567846,-27,-252,945,15514,10535,-63718
1721675671.577115,28,-244,940,12915,11235,-60813
1721675671.586384,68,-211,960,8759,10482,-51372
1721675671.595653,83,-141,985,4113,8986,-40294
1721675671.604922,59,-58,986,-700,6868,-32209
1721675671.614197,-17,18,981,-4217,4410,-26023,-19598,24951,54956,84525,36841, 155690.600, 40.0103320,-105.2442003, 1602.017,1623.345, 2.548,2.363
1721675671.623462,-66,26,975,-5818,2143,-21604
1721675671.632727,-92,18,978,-5792,1251,-19399
1721675671.641992,-127,16,986,-5547,1391,-22260
1721675671.651257,-155,-24,996,-5223,2590,-28665
1721675671.660522,-57,-59,1006,-4768,4970,-34790
1721675671.669787,12,-45,1022,-5171,8015,-38448
1721675671.679052,61,-13,1035,-6658,10010,-40163
1721675671.688324,111,23,1031,-8505,10920,-37923,,,,84522,36836
1721675671.697589,127,55,1017,-10010,10788,-34117
1721675671.706854,113,71,1018,-10316,9511,-30258
1721675671.716119,99,104,1028,-9887,7525,-25498
1721675671.725384,69,163,1038,-9126,5486,-20502
1721675671.734649,11,204,1046,-7551,3543,-12364
1721675671.743914,-26,213,1061,-5110,2187,-4988
1721675671.753179,-36,198,1067,-2572,2108,-5172
1721675671.762451,-29,156,1068,132,2765,-7053,-19586,26824,55358,,, 155690.700, 40.0103319,-105.2442004, 1601.984,1623.312, 2.537,2.354
1721675671.771716,-24,108,1074,2940,3692,-8304
1721675671.780981,4,70,1097,5189,4497,-10229
1721675671.790246,47,98,1106,6283,4917,-9232
1721675671.799511,45,116,1093,6887,4488,-1505
1721675671.808776,20,91,1085,8077,2931,7525
1721675671.818041,14,29,1086,9590,1085,10937
1721675671.827306,17,-16,1083,10457,-245,9406
1721675671.836609,17,-17,1085,10352,-1374,8207,-19598,26501,55267,84515,36841, 155690.800, 40.0103320,-105.2442004, 1601.962,1623.290, 2.526,2.345
1721675671.845874,-20,6,1083,9485,-2625,10316
1721675671.855139,-96,54,1074,8365,-3658,15093
1721675671.864404,-155,88,1066,7377,-3632,19013
1721675671.873669,-167,88,1056,7490,-1733,21122
1721675671.882934,-134,58,1046,8182,1592,22225
1721675671.892199,-91,8,1044,9039,5101,21735
1721675671.901464,-30,-30,1032,9013,7980,19512
1721675671.910736,27,-101,1023,8190,9528,16861,-19067,25543,55487,84523,36850, 155690.900, 40.0103317,-105.2442004, 1601.932,1623.261, 2.516,2.338
1721675671.920001,65,-139,1011,7132,9695,15942
1721675671.929266,102,-166,1002,5023,8732,16835
1721675671.938531,123,-164,994,2048,7000,19363
1721675671.947796,128,-145,986,-1330,4313,24027
1721675671.957061,79,-131,981,-4777,1155,29120
1721675671.966326,67,-113,980,-7796,-1917,32077
1721675671.975591,62,-85,983,-10920,-3404,31578
1721675671.984924,69,-56,981,-13720,-4402,30983,-19476,26074,55181,84520,36856
1721675671.994190,82,-40,985,-15898,-5172,29470
1721675672.003456,104,-24,994,-17727,-5977,25611
1721675672.012722,97,-29,1007,-19223,-7254,19871
1721675672.021988,91,-20,1007,-20588,-9127,14052
1721675672.031254,88,10,1007,-22286,-10982,10281
1721675672.040520,82,53,1002,-23747,-12758,9546
1721675672.049786,65,70,994,-24097,-14700,11523
1721675672.059052,7,75,1003,-23117,-16695,16152,,,,,, 155691.000, 40.0103316,-105.2442003, 1601.939,1623.267, 2.507,2.331
1721675672.068318,15,33,1020,-21577,-18454,22557
1721675672.077584,15,-25,1030,-19897,-18822,29181
1721675672.086850,21,1,1035,-19460,-19075,32698
1721675672.096116,10,8,1042,-20720,-19460,31762
1721675672.105382,-8,-13,1056,-21743,-19942,25051
1721675672.114648,-28,-2,1058,-22872,-20379,15925
1721675672.123914,-56,22,1043,-24395,-20633,11471
1721675672.133179,-100,66,1032,-25401,-20677,12967,-20562,26654,54284,84526,36854, 155691.100, 40.0103314,-105.2442006, 1601.916,1623.244, 2.497,2.323
1721675672.142445,-157,92,1023,-25497,-20292,16625
1721675672.151711,-184,75,1019,-24272,-18717,20037
1721675672.160977,-145,64,1027,-22260,-15785,24132
1721675672.170243,-85,61,1034,-20825,-12084,26897
1721675672.179509,-91,42,1044,-20230,-9162,23143
1721675672.188775,-121,36,1043,-20291,-7517,13072
1721675672.198041,-123,112,1045,-21236,-5714,2572
1721675672.207337,-137,143,1034,-22102,-3238,-3588,-20916,27770,54083,84518,36859
1721675672.216606,-156,171,1027,-21175,-744,-6388
1721675672.225875,-123,194,1027,-19433,2030,-7482
1721675672.235144,-84,236,1028,-17176,5180,-7097
1721675672.244413,-53,223,1002,-14218,7227,-4253
1721675672.253682,-21,205,986,-9966,8478,1715
1721675672.262951,16,178,976,-5932,9117,8785
1721675672.272220,57,113,983,-2651,9248,12845
1721675672.281494,61,82,1011,-323,8601,11856,-20605,27960,54425,84523,36861, 155691.200, 40.0103314,-105.2442009, 1601.897,1623.225, 2.487,2.316
1721675672.290760,59,132,1015,-148,7271,7560
1721675672.300026,43,180,1004,-945,5775,3552
1721675672.309292,0,235,1003,-621,4471,2397
1721675672.318558,-28,279,1000,762,3228,2747
1721675672.327824,-50,382,1008,3072,2966,3220
1721675672.337090,-98,399,987,6502,3342,2896
1721675672.346356,-87,331,974,12653,4068,3176
1721675672.355621,-19,261,976,19705,6160,5118,,,,,, 155691.300, 40.0103313,-105.2442009, 1601.898,1623.226, 2.477,2.308
1721675672.364887,29,148,974,25025,8050,4427
1721675672.374153,70,35,973,28700,8443,568
1721675672.383419,107,7,974,30214,7612,-245
1721675672.392685,145,-106,945,29759,5713,3981
1721675672.401951,133,-189,947,28753,2695,10596
1721675672.411217,131,-153,957,25297,-1147,19713
1721675672.420483,131,-166,965,19872,-4664,30073
1721675672.429749,128,-124,969,15015,-8050,37528,-20428,26599,54388,84527,36874, 155691.400, 40.0103312,-105.2442008, 1601.903,1623.231, 2.466,2.300
1721675672.439015,132,-133,961,10107,-11577,41142
1721675672.448281,-33,26,953,6152,-15129,40967
1721675672.457547,-66,-15,952,2424,-18638,37782
1721675672.466813,-54,-20,968,1707,-18734,33495
1721675672.476079,-56,-53,986,1234,-17527,31395
1721675672.485345,-38,-123,995,552,-16713,29723
1721675672.494611,-3,-125,992,-1128,-15803,26223
1721675672.503876,15,-131,996,-4663,-15217,22828,-21203,25463,53399,84524,36876
1721675672.513142,-131,131,1015,-8435,-15444,19031
1721675672.522408,-320,364,1030,-12083,-16179,12687
1721675672.531674,-267,236,1020,-11278,-13922,-12758
1721675672.540940,-385,292,1027,-8303,-9310,-47749
1721675672.550206,-274,578,974,-5915,-5530,-64479
1721675672.559472,-253,393,942,-735,-543,-61408
1721675672.568738,-230,140,984,9748,2721,-12889
1721675672.578034,-111,73,999,17229,6046,32357,-21130,25262,53552,,, 155691.500, 40.0103312,-105.2442011, 1601.863,1623.191, 2.456,2.292
1721675672.587300,-127,-2,1017,20274,9581,50522
1721675672.596566,-45,-40,1037,21368,11935,47608
1721675672.605832,58,-51,1037,20668,14665,39016
1721675672.615098,67,-93,1049,19233,15925,29916
1721675672.624364,31,-98,1054,16678,15653,15837
1721675672.633630,-31,-58,1022,13703,14533,8163
1721675672.642896,16,-23,1017,10728,14096,6790
1721675672.652191,-8,3,1011,8812,13903,8592,-20526,24847,54113,84523,36883, 155691.600, 40.0103309,-105.2442008, 1601.807,1623.135, 2.444,2.280
1721675672.661457,-49,20,1005,7849,12451,8566
1721675672.670723,-82,3,1004,7403,11191,4943
1721675672.679989,-84,24,1000,7499,11007,3465
1721675672.689255,-25,29,1001,7692,11480,7630
1721675672.698521,13,-2,1009,7928,12451,9966
1721675672.707787,44,-55,1013,7797,12285,5162
1721675672.717053,58,-83,1029,6659,11025,-1987
1721675672.726318,25,-82,1042,4165,9073,-7315,,,,84522,36879, 155691.700, 40.0103308,-105.2442003, 1601.770,1623.098, 2.430,2.267
1721675672.735587,-35,-68,1042,893,6448,-10448
1721675672.744856,-79,-65,1047,-1898,3946,-11585
1721675672.754125,-121,-8,1067,-4226,2415,-13808
1721675672.763394,-198,51,1066,-6571,1741,-18953
1721675672.772663,-197,56,1050,-7883,1881,-24990
1721675672.781932,-132,64,1050,-7595,3543,-25253
1721675672.791201,-66,-13,1050,-6991,5241,-22899
1721675672.800476,11,-63,1057,-6361,5407,-19285,-20605,26300,54431,84524,36879
1721675672.809745,49,-76,1072,-7122,4235,-10177
1721675672.819014,44,-65,1084,-9345,1522,-1567
1721675672.828283,18,-116,1101,-12092,-1733,1365
1721675672.837552,13,-4,1112,-15032,-4629,892
1721675672.846821,23,274,1126,-19267,-6685,-385
1721675672.856090,1,516,1135,-21131,-8470,-2424
1721675672.865359,-39,457,1132,-18173,-10185,-1934
1721675672.874603,-216,396,1142,-11786,-11218,1207,-21087,27435,54156,,, 155691.800, 40.0103307,-105.2442002, 1601.743,1623.071, 2.417,2.257
1721675672.883869,-246,319,1141,-6335,-11025,192
1721675672.893135,-253,211,1132,-1636,-8409,-10667
1721675672.902401,-240,164,1118,1829,-5688,-20615
1721675672.911667,-199,124,1096,3894,-2625,-20020
1721675672.920933,-164,101,1085,5662,148,-13860
1721675672.930199,-131,79,1076,7237,1986,-7788
1721675672.939465,-72,53,1078,8610,3473,-6055
1721675672.948731,165,51,1079,9669,4900,-6965,-21112,28363,54150,84524,36885, 155691.900, 40.0103306,-105.2442003, 1601.755,1623.083, 2.406,2.249
1721675672.957997,152,-64,1082,10325,5381,-10185
1721675672.967263,20,-33,1095,9774,2957,-19740
1721675672.976529,4,110,1066,7132,1461,-24929
1721675672.985795,-18,139,1025,5784,1181,-22934
1721675672.995061,-29,73,1021,7097,673,-20327
1721675673.004327,-31,76,1017,9223,175,-17824
1721675673.013593,-48,97,1012,10072,-359,-15689
1721675673.022888,-85,103,1004,10815,-1094,-13230,-21325,28680,53900,84522,36887, 155692.000, 40.0103306,-105.2442003, 1601.757,1623.085, 2.397,2.242
1721675673.032154,-100,71,999,11944,-1689,-11988
1721675673.041420,-66,23,1003,13204,-1575,-10789
1721675673.050686,5,23,995,13782,-1085,-8759
1721675673.059952,32,16,988,13449,-1313,-6537
1721675673.069218,12,-20,997,12898,-2538,-5723
1721675673.078484,-26,-50,1001,12005,-3780,-5863
1721675673.087750,-35,-69,995,10194,-4270,-3894
1721675673.097015,-26,-48,993,7893,-4165,1015,,,,84516,36887
1721675673.106281,-5,-55,994,5312,-3903,4383
1721675673.115547,-8,-14,992,3002,-4095,4471
1721675673.124813,-38,14,990,429,-4804,1592
1721675673.134079,-95,36,982,-1373,-5504,-5207
1721675673.143345,-138,47,976,-2528,-5452,-13650
1721675673.152611,-126,50,980,-2703,-4087,-17212
1721675673.161877,-90,41,976,-2143,-1820,-14385
1721675673.171173,-68,25,976,-1251,183,-9827,-21606,29467,53613,84516,36901, 155692.200, 40.0103304,-105.2442006, 1601.739,1623.067, 2.379,2.231
1721675673.180439,-68,-9,984,-665,1356,-6930
1721675673.189705,-42,-60,999,-551,2170,-6843
1721675673.198971,20,-102,1026,-1627,3368,-9442
1721675673.208237,67,-92,1033,-4252,3972,-13327
1721675673.217503,51,-42,1023,-7822,3176,-15374
1721675673.226769,9,0,1013,-11051,1233,-14534
1721675673.236035,-19,29,1009,-12915,-307,-12539
1721675673.245300,-33,72,1001,-13711,-963,-8847,-21453,30755,53436,,, 155692.200, 40.0103304,-105.2442006, 1601.739,1623.067, 2.379,2.231
1721675673.254569,-77,119,994,-13711,-954,-4235
1721675673.263838,-107,126,989,-12652,-517,-937
1721675673.273107,-78,92,989,-10587,1120,43
1721675673.282376,-48,41,1008,-8645,3473,-2608
1721675673.291645,7,59,1024,-8120,5363,-10080
1721675673.300914,28,46,1026,-9135,6597,-20528
1721675673.310183,47,49,1019,-10351,6930,-28070
1721675673.319458,54,105,1015,-11593,6405,-28044,-21582,32696,53759,84523,36894, 155692.300, 40.0103304,-105.2442009, 1601.744,1623.072, 2.373,2.226
1721675673.328727,83,208,1004,-12442,5241,-21665
1721675673.337996,102,304,997,-12092,3596,-12968
1721675673.347265,30,439,1001,-10141,1338,-5408
1721675673.356534,-78,484,1002,-6518,-1015,-1890
1721675673.365803,-143,427,1000,-411,-1908,-2337
1721675673.375072,-147,327,1001,7035,-88,-4209
1721675673.384341,-141,217,1014,13528,2983,-7324
1721675673.393616,-117,112,1029,17833,6055,-14622,-21124,32879,54168,84520,36901
1721675673.402885,-75,76,1025,19583,8680,-23765
1721675673.412154,-39,52,1009,19347,10325,-27572
1721675673.421423,-19,28,999,18900,10596,-23652
1721675673.430692,7,24,991,18367,10001,-15672
1721675673.439961,27,43,984,17413,8863,-5784
1721675673.449230,12,62,974,16468,7131,3561
1721675673.458499,-15,77,965,15882,5232,9257
1721675673.467743,-27,76,956,15672,3736,11208,,,,,, 155692.400, 40.0103305,-105.2442010, 1601.747,1623.075, 2.368,2.222
1721675673.477008,-35,71,958,15917,3027,10473
1721675673.486273,-60,83,966,15934,2773,6711
1721675673.495538,-79,62,976,15890,2835,-315
1721675673.504803,-89,14,1004,16100,3622,-8497
1721675673.514068,-62,-12,1036,15838,5075,-15234
1721675673.523333,-16,-28,1056,14534,7008,-19355
1721675673.532598,21,-68,1042,12942,8750,-20712
1721675673.541870,63,-111,1040,11288,9721,-20204,-20782,32983,54473,84519,36905, 155692.500, 40.0103305,-105.2442011, 1601.746,1623.074, 2.359,2.217
1721675673.551139,100,-118,1039,8663,10018,-17885
1721675673.560408,132,-113,1030,5312,9283,-12924
1721675673.569677,140,-76,1020,1969,7507,-5758
1721675673.578946,134,-74,1010,-1015,4926,1163
1721675673.588215,83,-22,1008,-3185,1968,6020
1721675673.597484,51,112,1000,-5381,-753,8268
1721675673.606753,76,178,996,-6518,-2100,8207
1721675673.616028,112,259,996,-4882,-2748,10718,-20831,32989,54467,84520,36919, 155692.600, 40.0103306,-105.2442013, 1601.772,1623.100, 2.347,2.211
1721675673.625293,35,166,1006,-1505,-4069,14752
1721675673.634558,-1,240,1008,2617,-5749,22137
1721675673.643823,-66,269,1004,5128,-6117,29671
1721675673.653088,-159,201,1039,8278,-5985,38027
1721675673.662353,-214,160,1070,11472,-4647,41938
1721675673.671618,-132,15,1083,13055,-1453,32935
1721675673.680883,-106,-65,1062,13125,1881,14183
1721675673.690155,-81,-37,1054,11200,3403,2520,-20745,32604,54632,84523,36923
1721675673.699420,-44,-7,1044,8479,4191,-44
1721675673.708685,2,7,1033,6458,4856,-2074
1721675673.717950,42,-3,1026,5058,5215,-6747
1721675673.727215,50,21,1017,3885,5162,-12714
1721675673.736480,89,2,1024,2914,4812,-19005
1721675673.745745,76,-36,1034,2923,4655,-24649
1721675673.755010,84,-61,1043,2590,3526,-24395
1721675673.764313,85,-79,1047,1575,2388,-17544,-20782,33020,54473,,, 155692.700, 40.0103306,-105.2442014, 1601.800,1623.128, 2.335,2.204
1721675673.773578,36,-90,1052,-148,936,-8567
1721675673.782843,15,-68,1052,-2292,-744,0
1721675673.792108,5,-49,1042,-4576,-1497,8190
1721675673.801373,7,-28,1034,-6378,-1908,15802
1721675673.810638,17,0,1025,-7717,-2302,21192
1721675673.819903,41,37,1015,-8933,-2547,22890
1721675673.829168,61,68,1009,-9738,-3028,20842
1721675673.838440,53,107,1002,-9966,-3947,16957,,,,84523,36923, 155692.800, 40.0103305,-105.2442015, 1601.805,1623.133, 2.322,2.197
1721675673.847709,14,131,1007,-9747,-5408,13965
1721675673.856978,-45,161,1011,-8697,-6904,13090
1721675673.866247,-59,135,1019,-7262,-7368,13501
1721675673.875516,-64,91,1025,-5626,-6799,12512
1721675673.884785,-52,78,1021,-4523,-6003,11182
1721675673.894054,-26,67,1021,-4261,-4962,9537
1721675673.903323,-4,56,1021,-4208,-4113,6483
1721675673.912598,5,73,1024,-4401,-3737,3176,-21136,33294,54187,84525,36925, 155692.900, 40.0103305,-105.2442018, 1601.850,1623.178, 2.310,2.189
1721675673.921867,9,104,1027,-4471,-3649,1067
1721675673.931136,15,123,1023,-4331,-3465,-2065
1721675673.940405,37,143,1018,-3613,-3238,-5110
1721675673.949674,41,132,1016,-2178,-3299,-5277
1721675673.958943,23,65,1019,-271,-4078,-2844
1721675673.968212,0,-10,1032,1365,-5154,1881
1721675673.977481,-38,-28,1042,1707,-5968,6667
1721675673.986755,-105,-5,1044,797,-6370,10552,-21325,33508,53900,84526,36927
1721675673.996024,-143,6,1048,-227,-6230,13720
1721675674.005293,-119,11,1045,-1128,-4787,12110
1721675674.014562,-74,31,1033,-2275,-2319,5066
1721675674.023831,-54,49,1026,-3237,17,-2993
1721675674.033100,-42,51,1024,-3552,1452,-11157
1721675674.042369,-20,31,1018,-3368,2450,-18104
1721675674.051638,26,4,1012,-2983,3141,-20834
1721675674.060883,48,-42,1021,-2721,3071,-18507,-21386,34698,53961,,, 155693.000, 40.0103308,-105.2442019, 1601.865,1623.193, 2.297,2.180
1721675674.070149,32,-71,1033,-3176,1977,-13265
1721675674.079415,18,-47,1029,-4786,245,-6607
1721675674.088681,11,2,1014,-7052,-1068,1400
1721675674.097947,-15,60,1008,-8811,-2162,7682
1721675674.107213,-53,115,1004,-9546,-2984,9362
1721675674.116479,-69,132,991,-9073,-2870,6982
1721675674.125745,-52,122,982,-7350,-1637,2065
1721675674.135010,-24,76,987,-5433,113,-3754,-21264,35925,53820,84522,36932, 155693.100, 40.0103312,-105.2442020, 1601.873,1623.201, 2.284,2.170
1721675674.144279,-9,13,1008,-3788,1513,-9555
1721675674.153548,15,15,1022,-3526,2196,-14350
1721675674.162817,27,33,1024,-4970,2546,-16564
1721675674.172086,27,62,1022,-6238,2021,-14009
1721675674.181355,21,135,1015,-7070,1295,-7884
1721675674.190624,7,204,1006,-7472,542,-3194
1721675674.199893,-12,234,996,-6361,140,-2302
1721675674.209168,-23,244,995,-3596,297,-3719,,,,84523,36936, 155693.200, 40.0103317,-105.2442022, 1601.885,1623.213, 2.273,2.162
1721675674.218434,-15,227,991,27,945,-5452
1721675674.227700,12,180,987,3903,1951,-8365
1721675674.236966,33,120,987,7315,2686,-13222
1721675674.246232,34,45,991,9765,2782,-17605
1721675674.255498,29,-33,1006,11279,1986,-17780
1721675674.264764,54,-29,1008,11262,1102,-12609
1721675674.274030,56,27,995,9582,358,-6047
1721675674.283295,25,53,977,7902,-910,-2940,-21118,36798,53991,84520,36941
1721675674.292561,9,83,966,7429,-2135,-4664
1721675674.301827,-2,116,962,7482,-2634,-10028
1721675674.311093,-32,142,965,8068,-2669,-17325
1721675674.320359,-44,132,971,9389,-2555,-25174
1721675674.329625,-51,112,977,11244,-2083,-32200
1721675674.338891,-60,66,992,12959,-1549,-35525
1721675674.348157,-54,0,1012,14490,-1085,-32367
1721675674.357452,-25,-37,1023,15295,-613,-22243,-21057,37426,54101,,, 155693.300, 40.0103320,-105.2442024, 1601.910,1623.238, 2.263,2.154
1721675674.366718,0,-51,1025,14718,-342,-9573
1721675674.375984,4,-55,1027,13082,-587,-420
1721675674.385250,3,-88,1021,11052,-1313,4130
1721675674.394516,-4,-98,1022,8890,-2074,5582
1721675674.403782,-35,-61,1034,5810,-2730,6588
1721675674.413048,-98,27,1036,2389,-3238,7166
1721675674.422314,-116,80,1031,-463,-2678,2257
1721675674.431580,-99,83,1033,-1583,-429,-9862,-20739,38806,54296,84524,36947, 155693.400, 40.0103324,-105.2442025, 1601.866,1623.194, 2.254,2.146
1721675674.440846,-83,57,1039,-1531,2266,-24168
1721675674.450112,-54,29,1041,-1382,4681,-33714
1721675674.459378,-23,16,1030,-1557,6273,-34397
1721675674.468644,7,36,1025,-1925,7078,-26889
1721675674.477910,46,37,1013,-2336,6938,-16127
1721675674.487176,78,13,1002,-2240,6160,-6624
1721675674.496442,75,14,1007,-2205,4725,516
1721675674.505707,48,60,1005,-3097,2677,4523,,,,84524,36947
1721675674.514973,29,102,997,-4200,875,4777
1721675674.524239,10,98,995,-4165,-132,2730
1721675674.533505,-19,87,1001,-3001,-657,166
1721675674.542771,-38,87,1006,-1802,-849,-1785
1721675674.552037,-45,64,1014,-840,-263,-3868
1721675674.561303,-47,43,1025,158,761,-7342
1721675674.570569,-44,40,1031,552,2126,-11498
1721675674.579865,-36,22,1027,508,3456,-15602,-20581,39855,54333,84522,36952, 155693.500, 40.0103330,-105.2442030, 1601.889,1623.217, 2.242,2.136
1721675674.589131,-31,-3,1029,613,4515,-18717
1721675674.598397,-22,-16,1029,578,5390,-19565
1721675674.607663,-18,-15,1021,97,6072,-18008
1721675674.616929,-19,-16,1007,-516,6431,-15129
1721675674.626195,-6,-29,998,-1006,6930,-13825
1721675674.635461,3,-41,995,-1592,7551,-15383
1721675674.644727,9,-67,1002,-2493,7953,-17737
1721675674.653992,15,-58,1009,-3701,8041,-18638,-19787,41400,54565,,, 155693.600, 40.0103332,-105.2442032, 1601.928,1623.256, 2.235,2.129
1721675674.663257,-2,-40,1013,-5407,7866,-17824
1721675674.672522,-19,-4,1015,-6755,7717,-16582
1721675674.681787,-26,33,1009,-7752,8085,-16503
1721675674.691052,-32,176,998,-7988,8890,-19154
1721675674.700317,-22,358,979,-7218,9966,-23582
1721675674.709582,27,318,987,-3368,11068,-22427
1721675674.718847,-1,170,1004,3238,11672,-15532
1721675674.728119,-47,67,1015,8689,11585,-11874,-18670,42626,55511,84520,36950, 155693.700, 40.0103331,-105.2442034, 1601.919,1623.247, 2.226,2.121
1721675674.737384,-97,16,1029,11244,12285,-11279
1721675674.746649,-56,15,1038,11927,14253,-11997
1721675674.755914,-44,0,1031,11489,17526,-12959
1721675674.765179,-50,-23,1020,11087,19757,-14499
1721675674.774444,-32,-39,1016,10597,21770,-15409
1721675674.783709,23,-24,1018,9643,23782,-15610
1721675674.792974,61,-26,1015,8304,25130,-15645
1721675674.802277,128,27,1001,7254,25165,-15908,-16973,43701,56866,84525,36963
1721675674.811542,145,35,1002,6414,24167,-17150
1721675674.820807,120,35,1011,6414,21735,-21447
1721675674.830072,119,38,1011,6607,18917,-24457
1721675674.839337,129,41,1006,7210,16773,-20003
1721675674.848602,139,28,1012,8173,14717,-11305
1721675674.857867,139,16,1017,9065,12573,-3833
1721675674.867132,99,-62,1029,9363,10447,-849
1721675674.876404,92,-79,1042,8934,8618,-2660,,,,,, 155693.800, 40.0103327,-105.2442036, 1601.822,1623.150, 2.212,2.109
1721675674.885669,143,-38,1047,6178,8146,-6204
1721675674.894934,210,-15,1038,2748,8277,-10570
1721675674.904199,265,-17,1026,272,7157,-17045
1721675674.913464,275,-2,1018,-1828,4445,-24815
1721675674.922729,241,17,1008,-3928,78,-29925
1721675674.931994,211,25,1006,-4996,-4813,-27300
1721675674.941259,198,12,1007,-4716,-9337,-15164
1721675674.950562,142,-24,1021,-3815,-13572,-377,-16455,44989,56988,84515,36959, 155693.900, 40.0103319,-105.2442035, 1601.707,1623.035, 2.199,2.099
1721675674.959827,54,-84,1043,-3150,-17807,11865
1721675674.969092,-101,-26,1068,-3517,-20677,21708
1721675674.978357,-236,120,1079,-5346,-20755,28840
1721675674.987622,-286,179,1075,-6510,-17194,26862
1721675674.996887,-277,311,1060,-5731,-10912,14472
1721675675.006152,-151,300,1040,-3578,-3588,6991
1721675675.015417,3,130,1029,875,2730,4777
1721675675.024689,58,36,1040,4787,5993,376,-16638,45208,56848,84522,36963, 155694.000, 40.0103314,-105.2442038, 1601.606,1622.935, 2.186,2.089
1721675675.033954,99,-1,1036,6344,6580,-4367
1721675675.043219,105,5,1040,6160,5880,-8943
1721675675.052484,116,16,1041,5040,4357,-13292
1721675675.061749,116,21,1046,4087,2528,-14062
1721675675.071014,125,64,1050,3413,507,-9862
1721675675.080279,63,54,1052,2818,-1619,-2923
1721675675.089544,-3,56,1055,2940,-3264,5416
1721675675.098816,-19,103,1050,2827,-3107,11077,-16473,45306,57049,84526,36972
1721675675.108081,-1,169,1024,2695,-1435,12836
1721675675.117346,14,181,1013,3028,700,12643
1721675675.126611,50,159,1014,4900,2205,9248
1721675675.135876,87,143,1007,7455,2852,7096
1721675675.145141,126,144,1004,9617,2388,7971
1721675675.154406,146,119,998,11314,1190,10368
1721675675.163671,115,82,998,12592,-840,13352
1721675675.172974,113,63,1006,13178,-3054,17053,-16857,44152,57202,,, 155694.100, 40.0103311,-105.2442038, 1601.519,1622.847, 2.176,2.081
1721675675.182239,101,81,1009,12670,-4375,19976
1721675675.191504,82,73,1014,11428,-5434,22006
1721675675.200769,47,44,1026,10938,-6528,22461
1721675675.210034,35,39,1032,10238,-6983,21980
1721675675.219299,49,47,1035,9030,-6633,20615
1721675675.228564,69,50,1037,7770,-5767,18585
1721675675.237829,84,36,1039,6939,-5408,17403
1721675675.247101,93,30,1043,6423,-5863,18147,,,,84516,36974, 155694.200, 40.0103312,-105.2442042, 1601.504,1622.832, 2.169,2.073
1721675675.256366,80,14,1045,5845,-6904,20492
1721675675.265631,51,-2,1047,5277,-8540,23493
1721675675.274896,8,-30,1058,4559,-10290,26766
1721675675.284161,-8,-7,1070,3518,-11585,30336
1721675675.293426,-43,24,1074,1952,-12154,33057
1721675675.302691,-73,36,1080,455,-12075,32742
1721675675.311956,-58,38,1081,-778,-10982,28866
1721675675.321228,-20,69,1072,-2082,-8689,23992,-17669,43218,56829,84518,36981, 155694.300, 40.0103313,-105.2442044, 1601.461,1622.789, 2.161,2.066
1721675675.330493,-3,81,1058,-3141,-6029,20090
1721675675.339758,23,56,1043,-3517,-3912,16178
1721675675.349023,59,32,1036,-3526,-2520,13536
1721675675.358288,76,9,1035,-3788,-2144,13938
1721675675.367553,75,10,1035,-4112,-3115,17185
1721675675.376818,62,24,1027,-4515,-4865,22618
1721675675.386083,42,49,1025,-4742,-6572,28796
1721675675.395386,31,25,1025,-4523,-8225,34098,-18341,42694,56549,84522,36981
1721675675.404651,7,-13,1039,-3981,-9398,37703
1721675675.413916,9,-32,1054,-4138,-10037,41527
1721675675.423181,24,-12,1061,-5180,-9757,47915
1721675675.432446,42,11,1064,-6728,-9415,55317
1721675675.441711,37,45,1065,-7840,-9337,60278
1721675675.450976,14,58,1057,-8548,-9774,59631
1721675675.460241,-9,48,1046,-8776,-10194,53698
1721675675.469513,-29,44,1041,-8715,-10115,45631,-19543,40795,55859,,, 155694.400, 40.0103307,-105.2442045, 1601.393,1622.721, 2.153,2.059
1721675675.478778,-58,48,1043,-8837,-9485,38535
1721675675.488043,-96,29,1044,-8557,-8847,35052
1721675675.497308,-5,12,1039,-7778,-7867,36907
1721675675.506573,117,-10,1041,-7113,-6099,43872
1721675675.515838,244,-17,1042,-7122,-5294,52246
1721675675.525103,271,61,1044,-8093,-6440,57662
1721675675.534368,212,137,1047,-9563,-9678,59762
1721675675.543671,81,199,1061,-9590,-13668,63761,-21002,36987,55261,84524,36990, 155694.500, 40.0103303,-105.2442046, 1601.352,1622.680, 2.145,2.052
1721675675.552936,-65,253,1075,-8373,-17089,66333
1721675675.562201,-185,192,1071,-6098,-18349,65432
1721675675.571466,-273,110,1065,-2738,-17474,66027
1721675675.580731,-297,84,1048,9,-14648,73316
1721675675.589996,-234,48,1032,2039,-10212,87097
1721675675.599261,-161,5,1030,4078,-5102,101850
1721675675.608526,-67,13,1026,5259,-1059,110722
1721675675.617798,5,-3,1026,4900,1645,110547,,,,84522,36992, 155694.600, 40.0103303,-105.2442048, 1601.312,1622.640, 2.137,2.046
1721675675.627063,71,-50,1027,4043,2397,102112
1721675675.636328,102,9,1023,2547,1478,89626
1721675675.645593,83,85,1012,-131,-744,78715
1721675675.654858,23,127,1015,-1496,-3737,72555
1721675675.664123,-90,177,1031,-1155,-6519,69457
1721675675.673388,-201,196,1027,27,-8225,66937
1721675675.682653,-123,121,1023,2590,-6624,63533
1721675675.691925,-53,65,1036,6484,-1453,61976,-21453,32641,55090,84519,36999
1721675675.701190,-35,16,1036,9468,1706,63796
1721675675.710455,-64,-84,1080,11384,2721,64863
1721675675.719720,-24,-162,1097,12469,2730,64828
1721675675.728985,-33,-110,1110,10684,2922,64155
1721675675.738250,-4,-143,1102,7035,2187,58975
1721675675.747515,-28,-138,1096,3929,1032,49525
1721675675.756780,-17,-38,1092,762,-1129,48300
1721675675.766083,-76,58,1090,-1470,-2853,58353,-21435,28662,54913,,, 155694.700, 40.0103300,-105.2442050, 1601.307,1622.635, 2.129,2.040
1721675675.775348,-112,110,1098,-1155,-4463,71163
1721675675.784613,13,38,1108,762,-4270,76772
1721675675.793878,40,7,1115,3299,-2695,74418
1721675675.803143,28,-61,1111,4568,-3212,71225
1721675675.812408,-36,-125,1109,5277,-4297,68906
1721675675.821673,-76,-200,1102,4647,-5548,63673
1721675675.830938,-111,-226,1106,2704,-6204,54818
1721675675.840210,-197,-118,1102,-1233,-6458,43032,-21350,26721,54724,84527,37008, 155694.800, 40.0103296,-105.2442050, 1601.292,1622.620, 2.120,2.034
1721675675.849475,-167,-58,1079,-6860,-6318,24683
1721675675.858740,-184,-107,1062,-10587,-4524,4620
1721675675.868005,-135,-132,1055,-12293,-3080,-2652
1721675675.877270,-23,-51,1046,-13195,-1138,9082
1721675675.886535,129,54,1037,-13991,936,29723
1721675675.895800,187,102,1031,-13221,1198,45053
1721675675.905065,149,45,1033,-10867,-1260,53348
1721675675.914429,154,48,1046,-8120,-5189,59920,-21417,24761,54095,84521,37005, 155694.900, 40.0103293,-105.2442051, 1601.284,1622.612, 2.114,2.029
1721675675.923694,43,91,1053,-7490,-9039,63656
1721675675.932959,-62,75,1058,-7621,-13248,60550
1721675675.942224,-183,50,1062,-6930,-15199,46663
1721675675.951489,-230,11,1072,-6282,-15182,29741
1721675675.960754,-259,14,1069,-5503,-12670,16861
1721675675.970019,-62,6,1070,-4226,-7770,14813
1721675675.979284,84,5,1063,-2721,-2065,17298
1721675675.988556,128,-33,1048,-1461,-167,18130,,,,84527,37016
1721675675.997821,81,-84,1060,-560,-1330,16152
1721675676.007086,103,-87,1060,-927,-3929,16747
1721675676.016351,125,-83,1052,-2187,-6327,24395
1721675676.025616,157,-62,1028,-3290,-9328,31237
1721675676.034881,-169,-7,1045,-4208,-12548,31762
1721675676.044146,-218,-38,1049,-5162,-15829,26538
1721675676.053411,-271,23,1048,-4917,-13082,18235
1721675676.062683,-142,-1,1031,-5057,-8234,18086,-21417,23284,53680,,, 155695.000, 40.0103289,-105.2442052, 1601.280,1622.608, 2.106,2.023
1721675676.071948,-99,-18,1005,-4698,-3964,21000
1721675676.081213,-19,-10,976,-4103,-2258,29916
1721675676.090478,15,13,956,-4191,-1812,42936
1721675676.099743,14,-144,973,-4261,-3264,55448
1721675676.109008,0,-124,982,-4313,-5478,67138
1721675676.118273,-93,-5,969,-7428,-7552,80465
1721675676.127538,-189,63,943,-10613,-9004,86931
1721675676.136841,-169,37,941,-11217,-8120,82687,-20275,19293,53472,84521,37019, 155695.100, 40.0103290,-105.2442053, 1601.289,1622.617, 2.098,2.016
1721675676.146106,-128,-19,936,-10027,-4778,76343
1721675676.155371,-138,49,927,-9152,-2162,75582
1721675676.164636,-124,114,911,-9520,-805,81628
1721675676.173901,-84,65,915,-8601,638,88147
1721675676.183166,-76,51,926,-6606,1653,95497
1721675676.192431,-71,57,935,-5880,2003,104308
1721675676.201696,-34,40,942,-5407,2485,107073
1721675676.210968,-5,57,932,-4856,3211,100826,-18005,14849,53674,84524,37023, 155695.200, 40.0103291,-105.2442055, 1601.248,1622.576, 2.088,2.007
1721675676.220233,16,6,925,-4593,3500,90002
1721675676.229498,-21,-15,927,-3701,3281,79310
1721675676.238763,-200,136,922,-3622,2248,73228
1721675676.248028,-230,1,926,-3911,1785,63245
1721675676.257293,-227,-50,935,-2747,4663,41658
1721675676.266558,-185,-97,954,-3360,8478,34273
1721675676.275823,-67,-118,970,-4523,12477,40145
1721675676.285095,4,-54,967,-6580,15715,51502,,,,84527,37025
1721675676.294360,16,-63,952,-9668,16590,56463
1721675676.303625,72,-73,939,-11961,15933,51318
1721675676.312890,92,-100,946,-14201,14770,47355
1721675676.322155,110,-33,959,-16730,12136,50697
1721675676.331420,70,173,953,-19836,9082,59403
1721675676.340685,73,243,959,-21262,5976,66281
1721675676.349950,15,456,953,-19958,3745,68661
1721675676.359253,-43,477,951,-17710,2170,61372,-15350,12213,54589
1721675676.368518,-33,449,947,-12057,1995,44493
1721675676.377783,37,360,921,-5407,2905,29102
1721675676.387048,99,197,935,902,4121,10543
1721675676.396313,-34,8,963,5819,4112,-10894
1721675676.405578,-149,-110,986,7359,2633,-25647
1721675676.414843,-182,-86,998,6414,2388,-16503
1721675676.424108,-94,-22,1010,4358,3841,7630
1721675676.433380,-48,10,997,2197,6440,23791,-14324,10931,54687,84524,37032, 155695.400, 40.0103292,-105.2442059, 1601.235,1622.563, 2.073,1.987
1721675676.442645,-58,56,998,1068,7078,31797
1721675676.451910,2,45,1007,893,6580,37913
1721675676.461175,-54,-4,1012,1199,5993,40547
1721675676.470440,-308,-171,1023,770,4007,39996
1721675676.479705,-345,-233,1031,-1251,3482,33661
1721675676.488970,-159,-163,1029,-5783,7157,19792
1721675676.498235,4,-25,1005,-9940,11663,8207
1721675676.507538,132,52,1007,-12250,13545,-665,-13189,10296,55273,84517,37030
1721675676.516803,124,225,1005,-12731,13133,-11699
1721675676.526068,41,387,994,-12818,10500,-22908
1721675676.535333,-31,496,990,-10421,7901,-27528
1721675676.544598,71,590,988,-4733,6247,-12513
1721675676.553863,-25,444,989,3614,4873,25331
1721675676.563128,-91,243,1001,13458,2126,71155
1721675676.572393,-83,-29,1033,20965,1610,113828
1721675676.581665,-137,-236,1087,23748,3613,133866,-6713,4083,55395,84516,37034, 155695.500, 40.0103288,-105.2442058, 1601.195,1622.523, 2.067,1.978
1721675676.590934,-126,-314,1134,21385,5696,131687
1721675676.600203,-39,-395,1145,15663,8925,123121
1721675676.609472,-61,-349,1139,9258,11768,124311
1721675676.618741,-129,-239,1131,2039,12276,148601
1721675676.628010,-177,-90,1114,-4611,11602,184826
1721675676.637279,-46,91,1073,-10018,11121,210061
1721675676.646548,44,304,1035,-12853,11051,217052
1721675676.655884,123,422,1006,-12582,8872,203752,,,,,, 155695.600, 40.0103290,-105.2442058, 1601.205,1622.533, 2.060,1.970
1721675676.665149,203,363,1015,-9152,6195,164815
1721675676.674414,297,159,1041,-4095,3351,104711
1721675676.683679,276,30,1059,272,-473,46025
1721675676.692944,120,-33,1079,1943,-6230,9345
1721675676.702209,14,-24,1099,1943,-11839,-11454
1721675676.711474,-81,14,1118,840,-14534,-28263
1721675676.720739,-319,169,1100,-288,-15129,-41563
1721675676.729950,-133,162,1067,-1172,-14385,-50785,-3643,2130,55541,84528,37043, 155695.700, 40.0103291,-105.2442057, 1601.267,1622.595, 2.052,1.963
1721675676.739215,-14,167,1057,578,-11585,-51739
1721675676.748480,-132,131,1008,2967,-12005,-53472
1721675676.757745,-87,74,1029,4857,-13327,-57593
1721675676.767010,-181,51,1009,8182,-12915,-50943
1721675676.776275,-264,5,1028,10763,-12539,-46489
1721675676.785540,-225,-107,1048,12460,-9827,-47303
1721675676.794805,-172,-123,1056,13108,-5880,-49832
1721675676.804077,-122,-127,1067,11708,-3317,-49245,-5468,2661,54956,84521,37048
1721675676.813342,-37,-112,1062,9958,-1785,-49403
1721675676.822607,14,-141,1053,7963,-1287,-49963
1721675676.831872,2,-122,1058,5915,-2380,-46682
1721675676.841137,-25,-52,1077,3159,-4577,-38780
1721675676.850402,-32,15,1078,858,-6274,-30039
1721675676.859667,-28,39,1067,79,-6782,-25559
1721675676.868932,-33,38,1045,727,-6537,-29199
1721675676.878235,-91,19,1029,1514,-6318,-39454,-6976,3601,54779,,, 155695.800, 40.0103291,-105.2442055, 1601.284,1622.612, 2.044,1.958
1721675676.887500,-185,-31,1024,2127,-5950,-51424
1721675676.896765,-220,-86,1042,2258,-4165,-62677
1721675676.906030,-183,-124,1067,1313,-272,-70674
1721675676.915295,-86,-83,1070,-875,4515,-71995
1721675676.924560,43,-96,1051,-3578,8076,-66815
1721675676.933825,132,-134,1037,-5416,9555,-61609
1721675676.943090,166,-126,1012,-7577,8093,-61732
1721675676.952362,-82,-77,951,-10255,4287,-63044,-8416,5511,55371,84520,37045, 155695.900, 40.0103290,-105.2442055, 1601.317,1622.645, 2.039,1.953
1721675676.961627,-125,-125,894,-12740,-298,-58975
1721675676.970892,-311,-213,884,-13545,-2967,-48843
1721675676.980157,-265,-88,907,-14595,-3465,-45684
1721675676.989422,-146,132,965,-16493,-315,-41082
1721675676.998687,-149,67,971,-16170,3010,-36462
1721675677.007952,-238,85,956,-12993,4436,-42447
1721675677.017217,-306,27,962,-11156,6186,-44809
1721675677.026489,-264,-78,977,-9012,10185,-48152,,,,84524,37052, 155696.000, 40.0103289,-105.2442055, 1601.354,1622.682, 2.036,1.950
1721675677.035754,-185,-52,999,-8785,15382,-51144
1721675677.045019,-139,14,999,-10972,19232,-49035
1721675677.054284,-119,110,1001,-12950,21306,-48563
1721675677.063549,-79,125,1005,-13842,22592,-55222
1721675677.072814,19,254,982,-13063,23406,-66518
1721675677.082079,63,394,963,-11655,23065,-75968
1721675677.091344,90,404,960,-8680,20807,-93573
1721675677.100647,79,330,944,-3683,17736,-115264,-9606,8221,56335,84522,37056
1721675677.109912,70,203,974,2529,14402,-122063
1721675677.119177,77,110,1011,7963,11576,-112578
1721675677.128442,185,51,1035,11568,9187,-88235
1721675677.137707,254,-1,1029,13624,7087,-58424
1721675677.146972,203,-64,1016,13502,3456,-34633
1721675677.156237,82,-70,997,11655,-1584,-22033
1721675677.165502,-53,-70,976,8085,-6143,-21359
1721675677.174774,-101,-38,970,4883,-8575,-24509,-10925,9063,55950,,, 155696.100, 40.0103290,-105.2442053, 1601.334,1622.662, 2.034,1.947
1721675677.184039,-197,83,989,2354,-8532,-26968
1721675677.193304,-181,143,990,858,-7464,-28062
1721675677.202569,-86,178,999,1768,-4900,-28167
1721675677.211834,24,221,1014,3597,-2205,-23380
1721675677.221099,71,173,1008,5828,-1252,-12784
1721675677.230364,38,121,1015,8374,-2792,-3220
1721675677.239629,-25,80,1004,9870,-5207,3097
1721675677.248901,-75,18,1004,10579,-6860,5092,-10748,8361,55627,84518,37054, 155696.200, 40.0103290,-105.2442053, 1601.319,1622.647, 2.032,1.943
1721675677.258166,-117,-37,1008,11157,-7359,5670
1721675677.267431,-152,-38,1018,10850,-6878,6501
1721675677.276696,-171,-11,1037,9302,-5924,5442
1721675677.285961,-170,25,1041,7832,-4288,3141
1721675677.295226,-128,48,1049,6738,-1847,-1330
1721675677.304491,-78,40,1032,6607,953,-8759
1721675677.313756,3,32,1042,6852,3246,-14027
1721675677.323059,55,60,1030,6922,4497,-13738,-10620,7775,55334,84528,37063, 155696.300, 40.0103292,-105.2442054, 1601.298,1622.626, 2.030,1.939
1721675677.332324,39,92,1018,6309,3727,-12732
1721675677.341589,8,93,1015,6405,1776,-11017
1721675677.350854,-20,57,1013,7744,236,-8330
1721675677.360119,-70,26,1027,9135,-665,-7158
1721675677.369384,-127,20,1044,9757,-1068,-7193
1721675677.378649,-163,13,1043,9862,-342,-6528
1721675677.387914,-161,6,1054,10150,1820,-4577
1721675677.397186,-109,4,1053,10693,5057,-3028,,,,84518,37068
1721675677.406451,-24,-13,1060,11218,8452,-3999
1721675677.415716,25,-35,1064,11340,10815,-8374
1721675677.424981,56,-26,1071,10798,11060,-13502
1721675677.434246,43,-7,1057,9599,10115,-15820
1721675677.443511,2,0,1060,8532,8233,-16617
1721675677.452776,-42,7,1063,7989,6361,-17903
1721675677.462041,-56,33,1057,7473,5250,-17912
1721675677.471344,-53,50,1057,7018,5127,-15925,-10168,7604,55407,,, 155696.400, 40.0103290,-105.2442053, 1601.273,1622.601, 2.028,1.934
1721675677.480609,-56,66,1054,6992,5337,-13222
1721675677.489874,-43,38,1051,7543,5495,-11638
1721675677.499139,0,-15,1043,8523,6195,-12154
1721675677.508404,17,-40,1038,8960,6781,-13598
1721675677.517669,35,-75,1033,8418,6317,-16223
1721675677.526934,77,-89,1033,7272,5188,-21062
1721675677.536199,101,-100,1041,5469,3447,-25253
1721675677.545471,101,-65,1051,3457,708,-27300,-10418,7739,55236,84529,37061, 155696.500, 40.0103289,-105.2442051, 1601.235,1622.563, 2.025,1.930
1721675677.554736,101,-37,1052,1234,-2512,-27125
1721675677.564001,100,-12,1049,-166,-5425,-25734
1721675677.573266,98,20,1027,-665,-8287,-22847
1721675677.582531,97,30,999,-490,-10990,-18340
1721675677.591796,95,28,990,394,-13528,-14140
1721675677.601061,70,32,988,1409,-15838,-11489
1721675677.610326,51,32,993,2205,-17982,-10404
1721675677.619598,9,3,1002,2975,-19460,-11095,-11547,7757,54443,84524,37076, 155696.600, 40.0103288,-105.2442049, 1601.221,1622.549, 2.023,1.926
1721675677.628863,-35,-44,1009,3745,-20694,-12627
1721675677.638128,42,-60,1007,3824,-20598,-12373
1721675677.647393,52,-110,1012,2757,-19670,-9232
1721675677.656658,-56,-15,1019,1120,-20817,-4410
1721675677.665923,-136,31,1017,-1846,-22532,-2170
1721675677.675188,-193,64,1018,-3465,-22050,-8392
1721675677.684453,-205,124,1012,-4025,-19775,-17413
1721675677.693756,-194,132,1002,-3876,-16608,-26609,-13537,9143,53778,84527,37079
1721675677.703021,-123,112,990,-2537,-13108,-40128
1721675677.712286,-38,77,977,-665,-9669,-53760
1721675677.721551,-7,29,965,1077,-7762,-61373
1721675677.730816,45,-22,953,2468,-7919,-61250
1721675677.740081,69,-33,950,2862,-9275,-53927
1721675677.749346,15,-9,949,1864,-12058,-44494
1721675677.758611,-56,37,959,543,-15567,-35385
1721675677.767883,-104,101,971,-43,-17938,-25804,,,,,, 155696.700, 40.0103286,-105.2442046, 1601.156,1622.484, 2.020,1.921
1721675677.777148,-142,114,978,814,-18375,-15890
1721675677.786413,-161,94,981,3448,-17509,-9372
1721675677.795678,-115,66,992,6143,-15470,-9459
1721675677.804943,-61,0,1005,8103,-12968,-15558
1721675677.814208,-48,-24,1000,8829,-11533,-26819
1721675677.823473,-63,-42,988,7779,-11699,-37442
1721675677.832738,-96,-30,982,6528,-12434,-39384
1721675677.842102,-138,-2,972,5110,-13125,-34650,-15002,9735,52917,84525,37081, 155696.800, 40.0103281,-105.2442044, 1601.063,1622.391, 2.016,1.916
1721675677.851367,-176,23,980,3815,-13230,-28902
1721675677.860632,-236,67,992,3264,-12399,-23660
1721675677.869897,-251,93,1006,3465,-10273,-21000
1721675677.879162,-188,97,1009,4542,-6423,-24343
1721675677.888427,-120,63,994,6204,-1908,-31360
1721675677.897692,-56,-34,986,8147,1242,-39367
1721675677.906957,11,-106,990,9144,2738,-45527
1721675677.916229,46,-104,987,7919,2275,-43427,-16027,10394,52539,84522,37088, 155696.900, 40.0103280,-105.2442040, 1601.057,1622.385, 2.008,1.908
1721675677.925495,59,-38,977,5242,-53,-31842
1721675677.934761,63,27,979,3037,-3527,-16275
1721675677.944027,-22,89,989,2643,-7237,-2669
1721675677.953293,-105,60,1003,3850,-10605,2336
1721675677.962559,-124,15,1030,6169,-11787,-2162
1721675677.971825,-161,29,1042,7552,-11200,-8523
1721675677.981091,-198,20,1037,7657,-10325,-15505
1721675677.990357,-210,-16,1031,7805,-8680,-23923,-16961,10681,51892,84518,37088
1721675677.999623,-197,-25,1029,7665,-6353,-29427
1721675678.008889,-153,-13,1013,6992,-3850,-30057
1721675678.018155,-104,0,999,6300,-1663,-28123
1721675678.027421,-69,0,993,5933,-490,-27405
1721675678.036687,-67,-27,992,5758,-333,-28840
1721675678.045953,-102,0,993,5583,-1103,-29540
1721675678.055219,-107,27,991,4944,-1873,-29015
1721675678.064514,-96,28,985,5250,-1847,-28394,-17712,11114,51519,,, 155697.000, 40.0103276,-105.2442039, 1601.003,1622.331, 1.999,1.899
1721675678.073780,-107,15,989,6493,-1715,-26872
1721675678.083046,-118,-14,992,7919,-1663,-25717
1721675678.092312,-110,-98,996,9197,-1479,-27292
1721675678.101578,-120,-158,1004,9905,-1304,-26312
1721675678.110844,-147,-177,1009,9065,-1470,-18830
1721675678.120110,-157,-180,1012,6764,-1427,-10990
1721675678.129376,-162,-181,1021,4052,-770,-4900
1721675678.138641,-146,-212,1034,1427,411,-2258,,,,84521,37092, 155697.100, 40.0103269,-105.2442039, 1600.941,1622.269, 1.990,1.890
1721675678.147907,-185,-150,1040,-1855,1671,-9853
1721675678.157173,-222,-73,1026,-5993,2782,-23057
1721675678.166439,-198,-78,1010,-8225,4970,-34432
1721675678.175705,-163,-50,1015,-8190,8268,-40049
1721675678.184971,-247,7,1015,-8137,10675,-42289
1721675678.194237,-194,15,1002,-7761,12460,-46034
1721675678.203503,-229,-70,1002,-6343,15111,-48624
1721675678.212799,-198,-108,1010,-5188,17281,-49937,-18261,13116,52258,84524,37096, 155697.200, 40.0103264,-105.2442038, 1600.892,1622.220, 1.981,1.883
1721675678.222065,-136,-62,1011,-5818,19748,-43427
1721675678.231331,-123,-7,1013,-7367,21393,-34659
1721675678.240597,-151,-10,1009,-7953,21953,-30765
1721675678.249863,-161,20,1024,-7691,22872,-31334
1721675678.259129,-65,14,1014,-7437,24631,-31159
1721675678.268395,3,-16,1014,-6912,25795,-32480
1721675678.277661,3,-6,1007,-6597,25672,-39454
1721675678.286926,76,-7,1011,-6930,24281,-42622,-18267,15454,53454,84523,37101
1721675678.296192,64,32,1014,-7367,21848,-41624
1721675678.305458,39,39,1006,-7866,18278,-44267
1721675678.314724,9,19,1010,-7306,15321,-48992
1721675678.323990,-18,-5,1012,-6107,12880,-50794
1721675678.333256,34,20,1011,-5048,11401,-46839
1721675678.342522,85,44,1012,-4340,10605,-36987
1721675678.351788,69,12,1001,-3027,8627,-28385
1721675678.361054,83,26,991,-1496,5635,-22409,-18859,16815,53527,,, 155697.300, 40.0103260,-105.2442037, 1600.870,1622.198, 1.973,1.877
1721675678.370320,99,1,990,-586,2922,-16214
1721675678.379586,88,-12,994,403,113,-12565
1721675678.388852,-16,21,994,674,-3229,-13187
1721675678.398118,-73,-18,993,342,-6003,-19189
1721675678.407384,-93,-16,1000,744,-6449,-25340
1721675678.416650,-91,-47,1008,893,-5600,-25620
1721675678.425916,-92,-66,1011,1322,-4472,-22558
1721675678.435211,-97,-80,1018,1129,-3579,-19574,,,,84515,37101, 155697.400, 40.0103256,-105.2442038, 1600.947,1622.275, 1.966,1.872
1721675678.444480,-80,-106,1012,184,-2599,-18988
1721675678.453749,-85,-32,1008,-1592,-1785,-22190
1721675678.463018,-108,-45,1001,-4042,-1567,-26863
1721675678.472287,-151,-125,996,-4445,-805,-27493
1721675678.481556,-259,-83,1006,-4891,385,-23442
1721675678.490825,-285,103,1016,-7455,2345,-22882
1721675678.500094,-102,26,993,-9485,5880,-23100
1721675678.509369,-62,31,1029,-7568,7752,-15847,-19384,18188,53765,84523,37110, 155697.500, 40.0103254,-105.2442042, 1600.984,1622.312, 1.960,1.867
1721675678.518635,-41,5,967,-6833,8785,-27458
1721675678.527901,10,-49,1001,-6186,9021,-43103
1721675678.537167,15,-8,988,-5792,8933,-45220
1721675678.546433,-44,4,1001,-6238,7166,-40312
1721675678.555699,-85,24,1015,-6755,5372,-38815
1721675678.564965,-107,-25,1025,-7043,4620,-41222
1721675678.574231,-77,-29,1054,-7297,4830,-43715
1721675678.583496,-63,39,1062,-8715,5363,-41213,-19934,20849,54254,84522,37105
1721675678.592765,-37,50,1046,-9721,5442,-35149
1721675678.602034,-4,14,1022,-9135,5346,-29820
1721675678.611303,3,31,1016,-8312,4865,-24282
1721675678.620572,47,30,1025,-8373,3333,-19338
1721675678.629841,67,80,1031,-8312,1400,-17798
1721675678.639110,52,159,1038,-8163,-1689,-18524
1721675678.648379,-2,168,1034,-6965,-5478,-18130
1721675678.657654,-8,126,1038,-4173,-8654,-17483,-20776,22216,53961,,, 155697.600, 40.0103249,-105.2442046, 1601.059,1622.387, 1.953,1.862
1721675678.666923,-7,75,1044,-1207,-10658,-15794
1721675678.676192,-24,14,1054,700,-12093,-15435
1721675678.685461,-42,2,1057,1479,-13694,-16118
1721675678.694730,-51,9,1062,972,-14805,-17430
1721675678.703999,-11,-22,1053,324,-15733,-18918
1721675678.713268,32,-4,1039,-288,-16573,-18935
1721675678.722537,27,36,1015,-1575,-18629,-16862
1721675678.731781,-26,59,998,-2686,-21735,-13099,-22186,22930,52752,84519,37123, 155697.700, 40.0103245,-105.2442050, 1601.051,1622.379, 1.946,1.855
1721675678.741050,-113,150,997,-3246,-24938,-8330
1721675678.750319,-227,259,1020,-3307,-27029,-4358
1721675678.759588,-349,275,1024,-1128,-27117,-3474
1721675678.768857,-400,224,1019,4122,-24308,-5014
1721675678.778126,-354,175,1006,10072,-18708,-7552
1721675678.787395,-283,93,1005,14508,-11979,-12513
1721675678.796664,-251,-1,1022,17080,-6274,-24982
1721675678.805939,-261,-40,1034,17185,-2608,-41152,,,,84520,37125
1721675678.815204,-279,-45,1036,15365,-210,-48012
1721675678.824469,-273,-53,1033,13327,1933,-42954
1721675678.833734,-274,-47,1039,11428,4401,-34309
1721675678.842999,-306,-23,1045,9118,6676,-27414
1721675678.852264,-284,48,1063,6974,9021,-20598
1721675678.861529,-218,131,1071,5557,12355,-12259
1721675678.870794,-181,143,1064,6029,15688,-7849
1721675678.880066,-174,122,1058,8042,18033,-13257,-22290,24353,53039,84523,37132, 155697.800, 40.0103239,-105.2442050, 1600.968,1622.296, 1.938,1.848
1721675678.889335,-113,55,1063,9827,19818,-25787
1721675678.898604,-47,9,1069,11113,21393,-38640
1721675678.907873,-56,42,1057,11122,21437,-46253
1721675678.917142,-65,24,1041,10465,20107,-46717
1721675678.926411,-19,1,1042,11034,19005,-40583
1721675678.935680,37,29,1049,11454,18147,-28674
1721675678.944949,42,10,1049,11262,16458,-17072
1721675678.954285,30,-23,1043,11559,13623,-10597,-21661,25494,53845,,, 155697.900, 40.0103238,-105.2442051, 1600.963,1622.291, 1.932,1.840
1721675678.963550,28,-15,1053,11402,10753,-5933
1721675678.972815,-1,36,1059,10352,8207,-1558
1721675678.982080,-16,28,1049,9643,5923,-674
1721675678.991345,-24,27,1035,10150,4305,-3185
1721675679.000610,-43,21,1031,10710,3246,-6860
1721675679.009875,-51,6,1026,10955,2563,-12723
1721675679.019140,-50,-20,1016,11323,1986,-18935
1721675679.028351,-67,-69,1015,11445,1653,-22663,-21813,25866,53784,84521,37130, 155698.000, 40.0103237,-105.2442051, 1600.939,1622.267, 1.927,1.833
1721675679.037616,-101,-135,1017,11113,910,-22252
1721675679.046881,-117,-160,1029,9748,262,-16853
1721675679.056146,-124,-105,1033,6755,-18,-6799
1721675679.065411,-149,-59,1031,3483,-210,5582
1721675679.074676,-135,-42,1030,1444,-35,15233
1721675679.083941,-89,-23,1035,552,1023,18401
1721675679.093206,-62,23,1030,-428,2082,14420
1721675679.102478,-49,43,1017,-1260,2327,3561,-21856,26550,53900,84524,37139
1721675679.111743,-31,8,1008,-1085,2161,-10562
1721675679.121008,-35,-32,1017,-201,2047,-21272
1721675679.130273,-75,-22,1014,114,866,-25813
1721675679.139538,-100,-36,1006,-315,-499,-24282
1721675679.148803,-112,-46,1006,-271,-1077,-17702
1721675679.158068,-139,-2,1009,-647,-1252,-7534
1721675679.167333,-146,31,1009,-1242,-1015,2292
1721675679.176636,-138,21,999,-708,-97,9467,,,,,, 155698.100, 40.0103236,-105.2442050, 1600.949,1622.277, 1.925,1.829
1721675679.185901,-107,47,1001,429,1216,14901
1721675679.195166,-68,73,1009,1138,2712,15365
1721675679.204431,-45,65,1004,2057,3990,7498
1721675679.213696,-39,35,997,3492,4462,-4743
1721675679.222961,-12,-19,995,5067,4593,-14622
1721675679.232226,8,-70,1008,6292,4567,-18909
1721675679.241491,-2,-97,1017,6195,3718,-18708
1721675679.250763,7,-117,1025,4892,2091,-15252,-21795,26770,53851,84524,37139, 155698.200, 40.0103234,-105.2442048, 1600.914,1622.242, 1.921,1.825
1721675679.260028,32,-79,1031,3028,612,-6519
1721675679.269293,30,-23,1032,1217,-1103,8102
1721675679.278558,44,-12,1029,377,-3080,20903
1721675679.287823,57,2,1029,718,-4787,26521
1721675679.297088,41,26,1028,1103,-6633,26206
1721675679.306353,2,34,1023,1645,-8593,22076
1721675679.315618,-53,10,1022,2687,-10080,14761
1721675679.324890,-113,-15,1035,4017,-10684,6702,-22198,26361,53466,84519,37143, 155698.300, 40.0103232,-105.2442048, 1600.839,1622.167, 1.916,1.820
1721675679.334155,-133,-68,1045,4883,-10194,-762
1721675679.343420,-140,-129,1045,5014,-8514,-6852
1721675679.352685,-125,-156,1037,3938,-6782,-8899
1721675679.361950,-87,-119,1028,1497,-5268,-4297
1721675679.371215,-57,-50,1020,-1470,-4349,4952
1721675679.380480,-51,4,1003,-3666,-4340,13693
1721675679.389745,-59,46,987,-3998,-5137,21105
1721675679.399048,-79,85,982,-2905,-5985,27588,-22375,25469,53155,84518,37148
1721675679.408313,-111,111,985,-577,-6510,32095
1721675679.417578,-133,85,995,2730,-6467,31815
1721675679.426843,-147,61,1005,6414,-5469,25077
1721675679.436108,-174,16,1007,9328,-4052,14113
1721675679.445373,-209,-31,1006,11594,-2389,3596
1721675679.454638,-202,-41,1010,13012,-447,-1234
1721675679.463903,-145,-47,1016,13773,2117,1146
1721675679.473175,-103,-55,1012,14473,4506,7735,-21954,24188,53381,,, 155698.400, 40.0103231,-105.2442047, 1600.794,1622.122, 1.910,1.815
1721675679.482440,-163,-74,1004,15077,5608,15461
1721675679.491705,-189,-119,1016,15567,5906,20597
1721675679.500970,-101,-197,1044,15234,7332,16721
1721675679.510235,-114,-249,1039,13554,9073,9485
1721675679.519500,-76,-265,1028,10754,8977,9108
1721675679.528765,-211,-81,1040,7158,8846,12888
1721675679.538030,-184,-21,1009,3999,8522,25226
1721675679.547333,-246,160,1044,3789,9248,44222,,,,84518,37148, 155698.500, 40.0103227,-105.2442046, 1600.692,1622.020, 1.905,1.810
1721675679.556598,-166,154,982,5110,10937,52150
1721675679.565863,-81,87,1007,9030,12031,60611
1721675679.575128,-108,-6,1004,12189,13160,41868
1721675679.584393,-68,-14,1017,13939,13501,14621
1721675679.593658,-131,-90,1022,13983,13588,-2275
1721675679.602923,-169,-125,1041,13860,13370,-24387
1721675679.612188,-235,-132,1058,12215,14612,-49534
1721675679.621460,-251,-157,1070,9984,17036,-80325,-21386,24426,53985,84520,37150, 155698.600, 40.0103229,-105.2442048, 1600.649,1621.977, 1.900,1.805
1721675679.630725,-225,-153,1065,7473,20352,-116480
1721675679.639990,-152,-123,1055,4577,23747,-154140
1721675679.649255,-69,-94,1030,2057,26363,-187443
1721675679.658520,29,-76,1010,455,27273,-214192
1721675679.667785,95,-60,987,-341,26538,-232532
1721675679.677050,99,-120,963,-332,23800,-240669
1721675679.686315,70,-245,951,622,19600,-239838
1721675679.695587,46,-294,966,1225,15321,-225803,-20782,36376,54803,84515,37152
1721675679.704852,36,-277,997,228,11952,-199334
1721675679.714117,29,-214,1022,-2065,9581,-173565
1721675679.723382,11,-90,1035,-5713,7936,-157710
1721675679.732647,23,30,1034,-9581,6833,-155252
1721675679.741912,8,115,1023,-12013,6291,-163730
1721675679.751177,7,108,1022,-12101,5731,-176435
1721675679.760442,-27,130,1034,-10333,5083,-185842
1721675679.769745,-74,160,1037,-8636,4217,-189035,-17871,46319,55023,,, 155698.700, 40.0103234,-105.2442048, 1600.630,1621.958, 1.895,1.800
1721675679.779014,-136,123,1024,-6370,3850,-188047
1721675679.788283,-164,10,1020,-2896,4173,-180872
1721675679.797552,-122,-50,1013,674,5267,-166898
1721675679.806821,-52,18,1017,2547,6685,-149013
1721675679.816090,-50,122,1040,3194,6973,-130288
1721675679.825359,12,93,1049,4489,6098,-107547
1721675679.834628,-31,23,1068,7140,4742,-73072
1721675679.844025,-87,-71,1063,9372,2747,-33067,-17498,45721,55615,84513,37156, 155698.800, 40.0103234,-105.2442051, 1600.564,1621.892, 1.888,1.795
1721675679.853290,-90,-16,1070,9984,1601,10946
